trial,phase,object,toShock,seenBefore,shockedCategory,responseSide,filename,num,name,onsetFixationCross,onsetStimulus,interTrialTime,response,reactionTime,wasShocked,buttonPressed,isResponseCorrect
1,3,animal,0,0,animals,2,a_154.png,154,tbd,0.0185003345395671,6.43974034094117,6.33704875467287,animal,1.06601599086389,0,2,1
2,3,tool,0,0,animals,2,t_267.png,267,tbd,9.00841588909589,17.0308234871009,7.96492183166503,tool,0.774251193666714,0,1,1
3,3,tool,0,0,animals,2,t_203.png,203,tbd,19.59952469379,27.0047204186931,7.35640023803538,tool,0.918537471065974,0,1,1
4,3,animal,0,0,animals,2,a_121.png,121,tbd,29.5734729424503,35.9280527182009,6.2877683325155,animal,0.543576800788287,0,2,1
5,3,tool,0,0,animals,2,t_220.png,220,tbd,38.4966756663607,44.7678594324625,6.22007723171671,tool,0.751937249311595,0,1,1
6,3,tool,0,0,animals,2,t_319.png,319,tbd,47.3365433196404,53.2241387333061,5.81396732903968,tool,0.864918190472963,0,1,1
7,3,tool,0,0,animals,2,t_272.png,272,tbd,55.7927225521998,60.2291674852968,4.38296798636574,tool,0.683118494463088,0,1,1
8,3,animal,0,0,animals,2,a_059.png,59,tbd,62.7978552212553,68.068330491079,5.21495933054894,animal,0.654173422649365,0,2,1
9,3,animal,0,0,animals,2,a_074.png,74,tbd,70.6202378663356,76.1074992058848,5.43066735613322,animal,0.631256823469812,0,2,1
10,3,animal,0,0,animals,2,a_119.png,119,tbd,78.6761407564809,85.4643539314329,6.73723591740911,animal,0.58180833762799,0,2,1
11,3,tool,0,0,animals,2,t_300.png,300,tbd,88.0330387808062,92.8029080281221,4.72138464718637,tool,0.843270405815929,0,1,1
12,3,animal,0,0,animals,2,a_051.png,51,tbd,95.3717275848012,100.892286645775,5.46060470659908,animal,0.774124825386025,0,2,1
13,3,tool,0,0,animals,2,t_209.png,209,tbd,103.460995870756,109.965644395343,6.43608741166034,tool,0.610008029019809,0,1,1
14,3,animal,0,0,animals,2,a_138.png,138,tbd,112.534290436182,118.605308768884,6.02425932025084,animal,0.616593291849313,0,2,1
15,3,animal,0,0,animals,2,a_168.png,168,tbd,121.173943904848,128.112271051801,6.8847303863879,animal,0.759937580307451,0,2,1
16,3,animal,0,0,animals,2,a_040.png,40,tbd,130.680936657273,137.485803183182,6.74344544325201,animal,0.618568998989758,0,2,1
17,3,tool,0,0,animals,2,t_233.png,233,tbd,140.071152288388,146.625834954862,6.4930152497297,tool,0.604849380699306,0,1,1
18,3,tool,0,0,animals,2,t_256.png,256,tbd,149.177812891088,156.850006192222,7.59626907871637,tool,0.627981832298246,0,1,1
19,3,tool,0,0,animals,2,t_332.png,332,tbd,159.418647742819,165.722989712067,6.27917131139861,tool,0.65983273312122,0,1,1
20,3,animal,0,0,animals,2,a_117.png,117,tbd,168.258175741251,173.945683659314,5.6577351875136,animal,0.675376031737869,0,2,1
21,3,tool,0,0,animals,2,t_356.png,356,tbd,176.480868084841,182.20193351699,5.68449208678132,tool,0.700737889235825,0,1,1
22,3,tool,0,0,animals,2,t_185.png,185,tbd,184.770576991977,190.541471297738,5.71714041717357,tool,0.545457892084414,0,1,1
23,3,animal,0,0,animals,2,a_151.png,151,tbd,193.109998667857,200.53201452419,7.36808738693976,animal,0.712198273580725,0,2,1
24,3,animal,0,0,animals,2,a_037.png,37,tbd,203.100659923567,209.722084286537,6.55998397936813,animal,0.600576914006524,0,2,1
25,3,tool,0,0,animals,2,t_199.png,199,tbd,212.29070210299,218.011404466878,5.66827078573655,tool,0.7632286080634,0,1,1
26,3,animal,0,0,animals,2,a_013.png,13,tbd,220.580143199174,226.267513523347,5.62579333838537,animal,0.914424728749509,0,2,1
27,3,animal,0,0,animals,2,a_066.png,66,tbd,228.836197410525,234.523584092014,5.62660088798424,animal,0.599573665314892,0,2,1
28,3,tool,0,0,animals,2,t_309.png,309,tbd,237.09223334017,244.7143700482,7.56194330367887,tool,0.603085035733784,0,1,1
29,3,animal,0,0,animals,2,a_084.png,84,tbd,247.283037898794,254.321432367327,6.98279117353757,animal,0.610289952165658,0,2,1
30,3,tool,0,0,animals,2,t_342.png,342,tbd,256.890083219142,263.561522800831,6.61877146507231,tool,0.58638453722142,0,1,1
31,3,animal,0,0,animals,2,a_157.png,157,tbd,266.113492077302,273.185256431889,7.02031387855664,animal,0.835937838175596,0,2,1
32,3,tool,0,0,animals,2,t_288.png,288,tbd,275.737238216896,279.840145938222,4.04153612057347,tool,0.698294876038744,0,1,1
33,3,tool,0,0,animals,2,t_191.png,191,tbd,282.4254360288,289.030209285936,6.55061214850673,tool,0.619497196468728,0,1,1
34,3,tool,0,0,animals,2,t_280.png,280,tbd,291.582163167286,298.787349013654,7.14247912933672,tool,0.622549920586607,0,1,1
35,3,animal,0,0,animals,2,a_088.png,88,tbd,301.355982545959,306.709846127871,5.28794276312115,animal,0.570345066696973,0,2,1
36,3,animal,0,0,animals,2,a_127.png,127,tbd,309.26181893239,317.300944989883,7.98529502115595,animal,0.618651106299694,0,2,1
37,3,tool,0,0,animals,2,t_251.png,251,tbd,319.852903361477,324.539540172301,4.62798735157831,tool,0.564768825730425,0,1,1
38,3,tool,0,0,animals,2,t_314.png,314,tbd,327.074856418547,334.079850210785,6.94854381021283,tool,0.524047769599747,0,1,1
39,3,tool,0,0,animals,2,t_345.png,345,tbd,336.648544361376,342.319257485813,5.61499654560932,tool,0.514965289920838,0,1,1
40,3,animal,0,0,animals,2,a_099.png,99,tbd,344.887925657139,352.259735138673,7.32105912790358,animal,0.614756782256336,0,2,1
41,3,animal,0,0,animals,2,a_077.png,77,tbd,354.828499850235,359.74871752441,4.85649794613181,animal,0.58602627993605,0,2,1
42,3,tool,0,0,animals,2,t_337.png,337,tbd,362.317375753054,369.939498028158,7.56640929399315,tool,0.587402539569666,0,1,1
43,3,tool,0,0,animals,2,t_245.png,245,tbd,372.491478209506,379.513164161234,6.9698954274528,tool,0.528085781435038,0,1,1
44,3,tool,0,0,animals,2,t_244.png,244,tbd,382.081841633779,388.453060969024,6.3139248186287,tool,0.581435326686005,0,1,1
45,3,animal,0,0,animals,2,a_078.png,78,tbd,391.021723367179,398.977415889416,7.90462334496289,animal,0.64737904276717,0,2,1
46,3,animal,0,0,animals,2,a_043.png,43,tbd,401.546076683913,408.11746369768,6.51075903810454,animal,0.559758676176898,0,2,1
47,3,animal,0,0,animals,2,a_020.png,20,tbd,410.686121605592,416.673758361571,5.93353677817401,animal,0.561464327244721,0,2,1
48,3,tool,0,0,animals,2,t_328.png,328,tbd,419.225736939261,426.580994741781,7.28333544392447,tool,0.575679475978177,0,1,1
49,3,tool,0,0,animals,2,t_242.png,242,tbd,429.132989035323,435.904408699575,6.72301004822226,tool,0.554356913242373,0,1,1
50,3,animal,0,0,animals,2,a_085.png,85,tbd,438.456525191886,444.210633684508,5.69703734406119,animal,0.603435274727417,0,2,1
51,3,animal,0,0,animals,2,a_172.png,172,tbd,446.779298007054,454.034486563604,7.19482798080196,animal,0.850804392949613,0,2,1
52,3,animal,0,0,animals,2,a_169.png,169,tbd,456.603131642249,461.389835133189,4.7281698352017,animal,0.600645229853399,0,2,1
53,3,tool,0,0,animals,2,t_247.png,247,tbd,463.958529604512,468.478234236295,4.473918388348,tool,0.555507057042632,0,1,1
54,3,animal,0,0,animals,2,a_170.png,170,tbd,471.030359709093,476.734427965926,5.64953870941734,animal,0.616553841851783,0,2,1
55,3,tool,0,0,animals,2,t_334.png,334,tbd,479.303043537257,487.025270980278,7.66210161689118,tool,0.539018562169076,0,1,1
56,3,animal,0,0,animals,2,a_171.png,171,tbd,489.594020296719,496.832483016953,7.17872008874789,animal,0.562128241819664,0,2,1
57,3,tool,0,0,animals,2,t_262.png,262,tbd,499.401155357791,505.839114144412,6.3892926602363,tool,0.564671964763875,0,1,1
58,3,tool,0,0,animals,2,t_252.png,252,tbd,508.391066742835,513.844963007306,5.3932245566189,tool,0.701271907480987,0,1,1
59,3,animal,0,0,animals,2,a_177.png,177,tbd,516.413611293267,521.717186713802,5.2528011621951,animal,0.604988898980082,0,2,1
60,3,animal,0,0,animals,2,a_116.png,116,tbd,524.26936157928,531.874840766841,7.55737170728867,animal,0.553701979154539,0,2,1
