trial,phase,object,toShock,seenBefore,shockedCategory,responseSide,filename,num,name,onsetFixationCross,onsetStimulus,interTrialTime,response,reactionTime,wasShocked,buttonPressed,isResponseCorrect
1,2,tool,0,0,animals,2,t_306.png,306,tbd,0.0185843652770927,6.70649961257186,6.58777590754314,1,0.835999740352236,0,1,0
2,2,animal,1,0,animals,2,a_178.png,178,tbd,11.3101836649266,18.6154118158029,7.24091646334335,0,0.801502482447177,1,2,0
3,2,tool,0,0,animals,2,t_182.png,182,tbd,23.3856640167442,31.5415623845729,8.10514652395777,0,0.897571883650016,0,2,1
4,2,animal,1,0,animals,2,a_061.png,61,tbd,36.0950339682267,45.9521447980205,9.79449694908079,1,1.35247620778773,1,1,1
5,2,tool,0,0,animals,2,t_266.png,266,tbd,50.7056772565475,57.8274837713134,7.06067464028913,0,1.42947137532337,0,2,1
6,2,animal,1,0,animals,2,a_140.png,140,tbd,62.3809309793605,69.8863184697348,7.44353238121215,1,1.09711830491051,1,1,1
7,2,animal,1,0,animals,2,a_055.png,55,tbd,74.6399234136206,83.8632347693501,9.17135111711081,1,0.842373961735575,1,1,1
8,2,tool,0,0,animals,2,t_287.png,287,tbd,88.6168195071414,98.3738341495045,9.70134844878698,0,0.915252217442685,0,2,1
9,2,tool,0,0,animals,2,t_315.png,315,tbd,102.944006873136,112.95118741396,9.9440066453275,0,0.824314523099019,0,2,1
10,2,tool,0,0,animals,2,t_333.png,333,tbd,117.521343459543,124.87664456084,7.29342405636886,0,0.755107682918606,0,2,1
11,2,animal,1,0,animals,2,a_145.png,145,tbd,129.430041414013,138.169709604262,8.69333959728483,0,0.624486178693587,1,2,0
12,2,animal,1,0,animals,2,a_108.png,108,tbd,142.939994519834,151.24592763894,8.25632097219948,1,0.864658078044158,1,1,1
13,2,tool,0,0,animals,2,t_226.png,226,tbd,156.016227949633,164.755647252099,8.69227977717339,0,0.811310136452448,0,2,1
14,2,tool,0,0,animals,2,t_230.png,230,tbd,169.325983548886,175.513746609,6.13103241708385,0,1.0545315526042,0,2,1
15,2,animal,0,0,animals,2,a_038.png,38,tbd,180.083875713122,189.00678560901,8.8642749887927,1,0.896862745908948,0,1,0
16,2,animal,1,0,animals,2,a_035.png,35,tbd,193.577076682631,202.383469249866,8.74582660799746,1,0.76553723564939,1,1,1
17,2,tool,0,0,animals,2,t_349.png,349,tbd,207.153722092271,216.6439142779,9.44196928570843,0,0.641436527184851,0,2,1
18,2,animal,1,0,animals,2,a_100.png,100,tbd,221.197332620095,229.536636908182,8.278144527474,0,0.670143936823479,1,2,0
19,2,tool,0,0,animals,2,t_234.png,234,tbd,234.290271038651,243.363456876038,9.02246016233035,0,0.954731400513083,0,2,1
20,2,tool,0,0,animals,2,t_196.png,196,tbd,247.916915309694,255.222036336188,7.25328094940575,0,0.767384008655426,0,2,1
21,2,animal,1,0,animals,2,a_112.png,112,tbd,259.775491562527,266.58037412502,6.74912800648473,1,0.776375079805803,1,1,1
22,2,animal,0,0,animals,2,a_017.png,17,tbd,271.334062459143,280.740743171718,9.34666177956047,1,0.655473349105705,0,1,0
23,2,tool,0,0,animals,2,t_211.png,211,tbd,285.310966250223,295.001306870473,9.62631549037795,0,0.796249218281446,0,2,1
24,2,animal,1,0,animals,2,a_029.png,29,tbd,299.571422503866,308.594635138385,8.97306124892501,1,0.964423911845188,1,1,1
25,2,tool,0,0,animals,2,t_293.png,293,tbd,313.364884773472,319.936228809193,6.51101415154424,0,0.737019378431796,0,2,1
26,2,tool,0,0,animals,2,t_265.png,265,tbd,324.489683394069,333.279348521331,8.72675182096396,0,0.587339356390657,0,2,1
27,2,tool,0,0,animals,2,t_281.png,281,tbd,337.832763976941,345.104570603963,7.21963798431704,0,0.576469759797874,0,2,1
28,2,animal,1,0,animals,2,a_042.png,42,tbd,349.674878034899,357.897346507777,8.18344913482134,1,0.673034691444627,1,1,1
29,2,tool,0,0,animals,2,t_222.png,222,tbd,362.651013032146,370.506610008416,7.79008882051608,0,0.63505108019217,0,2,1
30,2,tool,0,0,animals,2,t_254.png,254,tbd,375.060072932315,383.299334595161,8.18043780085584,0,0.705751888532177,0,2,1
31,2,tool,0,0,animals,2,t_235.png,235,tbd,387.869452152943,394.791001184318,6.87340836656437,0,0.889434920960412,0,2,1
32,2,animal,1,0,animals,2,a_161.png,161,tbd,399.34450291675,407.233580431503,7.82684040700579,1,0.564391646238619,1,1,1
33,2,tool,0,0,animals,2,t_212.png,212,tbd,412.003835519029,420.176308979284,8.1096436708787,0,0.823761581685176,0,2,1
34,2,animal,0,0,animals,2,a_016.png,16,tbd,424.746496135841,432.718909041955,7.91671670064021,1,0.655571813731513,0,1,0
35,2,animal,1,0,animals,2,a_046.png,46,tbd,437.272361060977,443.57668122047,6.24693436117643,1,1.05219662598302,1,1,1
36,2,tool,0,0,animals,2,t_192.png,192,tbd,448.330457114342,458.18755928438,9.80122732181244,0,0.7936602721702,0,2,1
37,2,animal,1,0,animals,2,a_025.png,25,tbd,462.74103375462,471.180293108197,8.38834179110197,1,0.832244293124859,1,1,1
38,2,animal,0,0,animals,2,a_134.png,134,tbd,475.950671356689,482.555516778452,6.54828895231023,1,0.641369814995414,0,1,0
39,2,tool,0,0,animals,2,t_219.png,219,tbd,487.108870012117,494.414076994703,7.25753986292925,0,0.593150052214696,0,2,1
40,2,animal,0,0,animals,2,a_141.png,141,tbd,498.98425292565,507.623785478472,8.58125403322479,1,0.611680966419044,0,1,0
41,2,animal,1,0,animals,2,a_153.png,153,tbd,512.193912978936,520.199591854041,7.94288126544834,1,0.761296200660581,1,1,1
42,2,tool,0,0,animals,2,t_232.png,232,tbd,524.969951500094,532.291863150705,7.26691683551459,0,0.592365221797081,0,2,1
43,2,animal,0,0,animals,2,a_150.png,150,tbd,536.845340507529,546.535455974141,9.64337414741739,1,0.781243465958141,0,1,0
44,2,animal,1,0,animals,2,a_047.png,47,tbd,551.122467431638,557.210103834812,6.03630467108805,1,0.690854543517162,1,1,1
45,2,animal,1,0,animals,2,a_086.png,86,tbd,561.96376266162,569.285615297602,7.26916432678324,1,0.79580115612589,1,1,1
46,2,tool,0,0,animals,2,t_312.png,312,tbd,574.055959227803,583.963047750709,9.85192359670762,0,0.642720416094562,0,2,1
47,2,animal,1,0,animals,2,a_176.png,176,tbd,588.533197381658,596.155308751885,7.56677008257552,1,0.655716463718818,1,1,1
48,2,animal,0,0,animals,2,a_036.png,36,tbd,600.908952504305,607.56359793383,6.60876510965689,1,0.750747977209357,0,1,0
49,2,animal,1,0,animals,2,a_179.png,179,tbd,612.117137833332,620.139705797177,7.95602734235242,1,0.732139445938628,1,1,1
50,2,tool,0,0,animals,2,t_187.png,187,tbd,624.909838685933,631.848159738985,6.88223353625754,0,0.859946850414417,0,2,1
51,2,animal,0,0,animals,2,a_026.png,26,tbd,636.418274410183,642.772748023747,6.31103057080935,1,0.780667431863549,0,1,0
52,2,tool,0,0,animals,2,t_338.png,338,tbd,647.342965970545,655.048441277253,7.65643748029666,0,0.659311545105084,0,2,1
53,2,tool,0,0,animals,2,t_248.png,248,tbd,659.618640942344,667.657769886422,7.9794363113118,0,0.922124535123658,0,2,1
54,2,tool,0,0,animals,2,t_358.png,358,tbd,672.211157117646,680.433775051485,8.16087536272252,0,0.69369815058144,0,2,1
55,2,animal,0,0,animals,2,a_039.png,39,tbd,685.00387593122,692.075590893129,7.00409888583387,1,0.666280723753516,0,1,0
56,2,animal,0,0,animals,2,a_007.png,7,tbd,696.645776125295,703.534010436464,6.82737475237152,1,0.803032372555208,0,1,0
57,2,tool,0,0,animals,2,t_297.png,297,tbd,708.104125428393,716.293304839601,8.13264715091347,0,0.691173350805002,0,2,1
58,2,animal,1,0,animals,2,a_094.png,94,tbd,720.846835758615,728.135408634144,7.22571736378378,1,0.829569711656404,1,1,1
59,2,tool,0,0,animals,2,t_216.png,216,tbd,732.90567687167,742.095649452319,9.12124590547996,0,0.765471806385904,0,2,1
60,2,tool,0,0,animals,2,t_294.png,294,tbd,746.665753539371,755.905737169225,9.1750650203298,0,0.550821168179027,0,2,1
