trial,phase,object,toShock,seenBefore,shockedCategory,responseSide,filename,num,name,onsetFixationCross,onsetStimulus,interTrialTime,response,reactionTime,wasShocked,buttonPressed,isResponseCorrect
1,1,animal,0,0,animals,2,a_152.png,152,tbd,0.0295950638919749,4.78300019194194,4.57599650877617,animal,1.18248972088622,0,2,1
2,1,tool,0,0,animals,2,t_236.png,236,tbd,7.36836276787926,13.923064998985,6.50693384214447,tool,1.34769283544756,0,1,1
3,1,tool,0,0,animals,2,t_198.png,198,tbd,16.4750474254552,24.1972694160377,7.66842306018938,tool,0.953766018077658,0,1,1
4,1,tool,0,0,animals,2,t_207.png,207,tbd,26.7492422205569,33.0037524296067,6.21220128940406,tool,0.807506278659275,0,1,1
5,1,animal,0,0,animals,2,a_162.png,162,tbd,35.5556921987636,42.8442519242944,7.24224894796821,animal,0.80731063233452,0,2,1
6,1,tool,0,0,animals,2,t_310.png,310,tbd,45.3962391617397,51.2337298725479,5.7890544870194,tool,0.970005304436199,0,1,1
7,1,animal,0,0,animals,2,a_163.png,163,tbd,53.7857363538942,58.3555209921933,4.50914427113899,animal,0.712405487125579,0,2,1
8,1,animal,0,0,animals,2,a_131.png,131,tbd,60.9242860244867,66.4115268372079,5.41563829759423,animal,0.671702071235813,0,2,1
9,1,animal,0,0,animals,2,a_120.png,120,tbd,68.9801677463411,76.1017815013674,7.07347618006841,animal,0.702640169702136,0,2,1
10,1,tool,0,0,animals,2,t_335.png,335,tbd,78.6539464241632,83.5240577918239,4.80211044540267,tool,0.680722649701238,0,1,1
11,1,tool,0,0,animals,2,t_296.png,296,tbd,86.0926948521765,92.7808439128657,6.62449747284478,tool,0.9251301316026,0,1,1
12,1,tool,0,0,animals,2,t_241.png,241,tbd,95.3495278000437,99.4524092213733,4.05081103553304,tool,0.806751276286377,0,1,1
13,1,animal,0,0,animals,2,a_009.png,9,tbd,102.021093429283,107.041288299436,4.95796396428495,animal,0.697074512880135,0,2,1
14,1,tool,0,0,animals,2,t_231.png,231,tbd,109.609987902467,114.146503043728,4.47027350356619,tool,0.728084455242424,0,1,1
15,1,tool,0,0,animals,2,t_197.png,197,tbd,116.715200080905,124.087133364867,7.31333306784264,tool,0.765721676281828,0,1,1
16,1,animal,0,0,animals,2,a_159.png,159,tbd,126.672459377392,132.359813985714,5.62639767481206,animal,1.29931014097383,0,2,1
17,1,animal,0,0,animals,2,a_114.png,114,tbd,134.92850332533,141.583262935334,6.6092322058021,animal,0.588102717702895,0,2,1
18,1,animal,0,0,animals,2,a_115.png,115,tbd,144.135283528874,150.589889572549,6.39031682278276,animal,0.684702288372137,0,2,1
19,1,tool,0,0,animals,2,t_289.png,289,tbd,153.158576987775,158.07866476562,4.86733845937806,tool,0.665115525482179,0,1,1
20,1,tool,0,0,animals,2,t_316.png,316,tbd,160.64738329182,168.269541809604,7.56377767337306,tool,0.674555300251086,0,1,1
21,1,animal,0,0,animals,2,a_076.png,76,tbd,170.838156418739,175.041077578723,4.15277548525164,animal,0.642205020203619,0,2,1
22,1,tool,0,0,animals,2,t_205.png,205,tbd,177.609802198825,184.514747592652,6.84807619054717,tool,0.70796174971656,0,1,1
23,1,animal,0,0,animals,2,a_083.png,83,tbd,187.083417046905,195.005753474551,7.85402622590312,animal,0.647092329524639,0,2,1
24,1,animal,0,0,animals,2,a_130.png,130,tbd,197.574440889777,205.029786540704,7.39954805735285,animal,0.629337265252616,0,2,1
25,1,tool,0,0,animals,2,t_221.png,221,tbd,207.598446373006,214.219906337194,6.55390150385278,tool,0.739499295688802,0,1,1
26,1,animal,0,0,animals,2,a_056.png,56,tbd,216.771810825865,223.026296980039,6.20491020615397,animal,0.557884020393431,0,2,1
27,1,tool,0,0,animals,2,t_323.png,323,tbd,225.561603283603,230.048101281756,4.41886699238767,tool,0.58773098968777,0,1,1
28,1,animal,0,0,animals,2,a_158.png,158,tbd,232.600075048471,237.236607797901,4.57911651765761,animal,0.555415027930394,0,2,1
29,1,animal,0,0,animals,2,a_053.png,53,tbd,239.788726214603,246.543543844967,6.69965556399714,animal,0.729755788020157,0,2,1
30,1,animal,0,0,animals,2,a_072.png,72,tbd,249.095518573877,256.467390598088,7.31303554600882,animal,0.603197954163988,0,2,1
31,1,tool,0,0,animals,2,t_208.png,208,tbd,259.036157875503,263.155722155102,4.07116465626209,tool,0.843019935254233,0,1,1
32,1,tool,0,0,animals,2,t_181.png,181,tbd,265.707689507183,273.079693672847,7.31808541506357,tool,0.620507522135085,0,1,1
33,1,animal,0,0,animals,2,a_133.png,133,tbd,275.631655251757,282.903612622668,7.20422527288225,animal,0.664638276743062,0,2,1
34,1,tool,0,0,animals,2,t_284.png,284,tbd,285.47217302815,292.627303885071,7.09385275777425,tool,0.785294326978146,0,1,1
35,1,tool,0,0,animals,2,t_250.png,250,tbd,295.162496970353,301.767319620168,6.54122420865015,tool,0.902614447020824,0,1,1
36,1,animal,0,0,animals,2,a_090.png,90,tbd,304.319300122247,310.206866990793,5.83083706294352,animal,0.712161731049491,0,2,1
37,1,animal,0,0,animals,2,a_044.png,44,tbd,312.775527143827,317.97921421106,5.14183572398256,animal,0.594142415946408,0,2,1
38,1,animal,0,0,animals,2,a_110.png,110,tbd,320.547908361652,325.301287510436,4.69110040543903,animal,0.582134863357169,0,2,1
39,1,tool,0,0,animals,2,t_318.png,318,tbd,327.86992104274,332.45649919174,4.53519352160741,tool,0.675274059943149,0,1,1
40,1,tool,0,0,animals,2,t_307.png,307,tbd,335.008512408452,340.629181769051,5.56580968941538,tool,0.551771195328001,0,1,1
41,1,animal,0,0,animals,2,a_045.png,45,tbd,343.197818508672,348.968589974201,5.71611907183447,animal,0.869591271912213,0,2,1
42,1,animal,0,0,animals,2,a_014.png,14,tbd,351.520570797012,357.34126222395,5.78544437800219,animal,0.903148785998383,0,2,1
43,1,animal,0,0,animals,2,a_104.png,104,tbd,359.910098137944,366.965137297679,6.99093753825766,animal,0.729466167314058,0,2,1
44,1,tool,0,0,animals,2,t_268.png,268,tbd,369.533748378766,375.904984392058,6.31400087717216,tool,0.808865860245533,0,1,1
45,1,animal,0,0,animals,2,a_003.png,3,tbd,378.473658978018,386.312637883816,7.77350141354547,animal,0.683579086033205,0,2,1
46,1,tool,0,0,animals,2,t_274.png,274,tbd,388.88126371856,395.002227350475,6.06873396602938,tool,0.895176679390715,0,1,1
47,1,animal,0,0,animals,2,a_126.png,126,tbd,397.554339031811,403.858680359595,6.2573917940068,animal,0.615096137251385,0,2,1
48,1,tool,0,0,animals,2,t_285.png,285,tbd,406.427477785787,411.681097002233,5.20162342857833,tool,0.638925218057011,0,1,1
49,1,animal,0,0,animals,2,a_113.png,113,tbd,414.249906936961,419.570311469413,5.26700418766373,animal,0.608855340246009,0,2,1
50,1,tool,0,0,animals,2,t_218.png,218,tbd,422.138980923666,426.558814842388,4.3682334971725,tool,0.743479575822676,0,1,1
51,1,animal,0,0,animals,2,a_160.png,160,tbd,429.110780911542,433.330378515164,4.16434498276034,animal,0.685227967593164,0,2,1
52,1,animal,0,0,animals,2,a_173.png,173,tbd,435.899098965753,441.35282267658,5.40025814319722,animal,0.536954353963665,0,2,1
53,1,animal,0,0,animals,2,a_123.png,123,tbd,443.904958092061,451.493750251839,7.51359875306989,animal,0.682171394694706,0,2,1
54,1,tool,0,0,animals,2,t_329.png,329,tbd,454.062403028044,461.868030008763,7.74735664039731,tool,0.852248989310283,0,1,1
55,1,tool,0,0,animals,2,t_324.png,324,tbd,464.419997360844,469.990650861261,5.51324801165844,tool,0.696952314110604,0,1,1
56,1,tool,0,0,animals,2,t_210.png,210,tbd,472.559307486246,477.362655668388,4.75075814242039,tool,0.640055797224704,0,1,1
57,1,animal,0,0,animals,2,a_079.png,79,tbd,479.914681393634,487.903743160461,7.93418731323268,animal,0.601336748232825,0,2,1
58,1,tool,0,0,animals,2,t_238.png,238,tbd,490.47239272935,498.278043444213,7.74567827009786,tool,0.577338962563772,0,1,1
59,1,tool,0,0,animals,2,t_283.png,283,tbd,500.863342515278,505.683416533734,4.74968578503413,tool,0.612105635079388,0,1,1
60,1,tool,0,0,animals,2,t_326.png,326,tbd,508.252130890422,515.657412250684,7.34607266525889,tool,0.543452377775793,0,1,1
