trial,phase,object,toShock,seenBefore,shockedCategory,responseSide,filename,num,name,onsetFixationCross,onsetStimulus,interTrialTime,response,reactionTime,wasShocked,buttonPressed,isResponseCorrect
1,3,animal,0,0,animals,2,a_139.png,139,tbd,0.0157305445841303,6.45412477414766,6.36921451504063,animal,0.990363897432871,0,2,1
2,3,animal,0,0,animals,2,a_169.png,169,tbd,9.02275666690593,15.9446990059378,6.86849156833488,animal,0.642886119524064,0,2,1
3,3,animal,0,0,animals,2,a_030.png,30,tbd,18.4968763306256,26.3531339920842,7.78121627074175,animal,0.61674137812588,0,2,1
4,3,tool,0,0,animals,2,t_216.png,216,tbd,28.9050876307533,34.5094890290175,5.53943370463843,tool,0.804562512355005,0,1,1
5,3,tool,0,0,animals,2,t_204.png,204,tbd,37.0782413710972,42.3990553599419,5.2488821590174,tool,0.732000256029096,0,1,1
6,3,tool,0,0,animals,2,t_332.png,332,tbd,44.9677910209789,52.0897364522161,7.07559587845364,tool,0.797546079309086,0,1,1
7,3,animal,0,0,animals,2,a_002.png,2,tbd,54.6587161618895,61.7140230844457,6.99607506784363,animal,0.735247026493198,0,2,1
8,3,tool,0,0,animals,2,t_214.png,214,tbd,64.2829543321222,69.8039998897789,5.45807047163099,tool,1.26354759105152,0,1,1
9,3,tool,0,0,animals,2,t_269.png,269,tbd,72.3559820345727,79.5115164404092,7.08863217172451,tool,2.47712100332546,0,1,1
10,3,animal,0,0,animals,2,a_095.png,95,tbd,82.063678580289,86.2000037058938,4.08458407829019,tool,0.92066661486615,0,1,0
11,3,tool,0,0,animals,2,t_280.png,280,tbd,88.768970330756,93.6561738645582,4.82456766053042,tool,0.738660128240099,0,1,1
12,3,animal,0,0,animals,2,a_144.png,144,tbd,96.2081160585631,103.764125813882,7.4899071338927,animal,0.917915831718346,0,2,1
13,3,animal,0,0,animals,2,a_174.png,174,tbd,106.332773468879,110.402427215805,4.01316528538096,animal,0.702556949441714,0,2,1
14,3,tool,0,0,animals,2,t_327.png,327,tbd,112.971314634551,118.659000384545,5.6232397450155,tool,0.767205473041031,0,1,1
15,3,tool,0,0,animals,2,t_271.png,271,tbd,121.227820127182,125.947919579001,4.66555089560884,tool,0.684252301137803,0,1,1
16,3,tool,0,0,animals,2,t_349.png,349,tbd,128.51694770482,136.306432286184,7.71008966633564,tool,0.683974937158382,0,1,1
17,3,animal,0,0,animals,2,a_097.png,97,tbd,138.875054492902,145.596819421346,6.66177665459509,animal,0.931786883906625,0,2,1
18,3,tool,0,0,animals,2,t_250.png,250,tbd,148.165716591505,154.737284116005,6.51453556010449,tool,0.766488156287778,0,1,1
19,3,animal,0,0,animals,2,a_039.png,39,tbd,157.289604595492,164.528558646261,7.17391776371751,animal,0.613174996998623,0,2,1
20,3,animal,0,0,animals,2,a_120.png,120,tbd,167.080654435582,172.001009552615,4.8676786510326,animal,0.722986043908804,0,2,1
21,3,animal,0,0,animals,2,a_059.png,59,tbd,174.553154112171,181.024724552948,6.41455902262351,animal,0.692265554403548,0,2,1
22,3,tool,0,0,animals,2,t_233.png,233,tbd,183.576949381782,191.433167459706,7.78508339691273,tool,0.831108918644986,0,1,1
23,3,animal,0,0,animals,2,a_160.png,160,tbd,193.985147911696,198.138484540421,4.08588960469596,animal,0.588860964199739,0,2,1
24,3,tool,0,0,animals,2,t_202.png,202,tbd,200.707099233274,208.429886423412,7.63209965685591,tool,0.681590057395169,0,1,1
25,3,animal,0,0,animals,2,a_141.png,141,tbd,210.981873765538,218.904790567043,7.77914912129289,animal,0.650739057130522,0,2,1
26,3,tool,0,0,animals,2,t_352.png,352,tbd,221.473474622895,226.293969202778,4.74729526726762,tool,0.55767498316618,0,1,1
27,3,tool,0,0,animals,2,t_285.png,285,tbd,228.845935742408,234.667257666479,5.751942358194,tool,0.538628479484487,0,1,1
28,3,animal,0,0,animals,2,a_103.png,103,tbd,237.219196133058,244.858329026505,7.58504142173953,animal,0.669700739349082,0,2,1
29,3,tool,0,0,animals,2,t_267.png,267,tbd,247.427253889298,251.530537132238,4.02522800517857,tool,1.378599009151,0,1,1
30,3,animal,0,0,animals,2,a_161.png,161,tbd,254.08248237773,259.720162830322,5.58319445295912,animal,0.643061899112581,0,2,1
31,3,animal,0,0,animals,2,a_159.png,159,tbd,262.288946618342,267.459763941812,5.10056185569099,animal,0.582535397265019,0,2,1
32,3,tool,0,0,animals,2,t_326.png,326,tbd,270.028381069226,274.381715999571,4.2898924448628,tool,0.68264534248101,0,1,1
33,3,animal,0,0,animals,2,a_017.png,17,tbd,276.950503771045,284.372963376807,7.34814891318208,animal,0.729646356444846,0,2,1
34,3,animal,0,0,animals,2,a_122.png,122,tbd,286.941706892635,294.030367330899,7.03208582610372,animal,1.87330551958394,0,2,1
35,3,tool,0,0,animals,2,t_307.png,307,tbd,296.599310895746,303.48813977834,6.80811842259341,tool,0.718633042379224,0,1,1
36,3,tool,0,0,animals,2,t_184.png,184,tbd,306.05677092298,312.178222639479,6.05310890215406,tool,0.511774089596202,0,1,1
37,3,tool,0,0,animals,2,t_272.png,272,tbd,314.746995934773,320.234685174905,5.42301456437538,tool,0.587346662385244,0,1,1
38,3,animal,0,0,animals,2,a_163.png,163,tbd,322.803300806084,328.17404836784,5.314513877059,animal,0.632128189764444,0,2,1
39,3,animal,0,0,animals,2,a_009.png,9,tbd,330.74289657075,335.163082231609,4.35446301709563,animal,0.622263939691948,0,2,1
40,3,tool,0,0,animals,2,t_347.png,347,tbd,337.73171937391,341.818331108986,4.0128714011946,tool,0.574079811884076,0,1,1
41,3,animal,0,0,animals,2,a_061.png,61,tbd,344.370297261839,350.558564745664,6.1142820722845,animal,1.19301147824353,0,2,1
42,3,animal,0,0,animals,2,a_041.png,41,tbd,353.11056435911,359.165332989879,6.0011799884419,animal,0.690358574037873,0,2,1
43,3,animal,0,0,animals,2,a_022.png,22,tbd,361.71728364924,368.02232695161,6.23654627358746,animal,0.677529404401866,0,2,1
44,3,tool,0,0,animals,2,t_292.png,292,tbd,370.590959913889,376.328865270395,5.67140525778577,tool,0.782071708761123,0,1,1
45,3,animal,0,0,animals,2,a_003.png,3,tbd,378.880818233125,383.401095211108,4.44468692583191,animal,0.59795787201665,0,2,1
46,3,tool,0,0,animals,2,t_230.png,230,tbd,385.969730161712,391.957811553055,5.92893093895022,tool,0.614235121646743,0,1,1
47,3,tool,0,0,animals,2,t_284.png,284,tbd,394.526476027095,401.715535025326,7.12015571024069,tool,0.637780098524672,0,1,1
48,3,tool,0,0,animals,2,t_222.png,222,tbd,404.267471109999,409.021289533779,4.6714325322999,tool,0.772999245523351,0,1,1
49,3,animal,0,0,animals,2,a_015.png,15,tbd,411.573238020966,417.661080072487,6.02804178405137,animal,0.524432188569335,0,2,1
50,3,animal,0,0,animals,2,a_148.png,148,tbd,420.24672713633,427.335717686796,7.00792734313203,animal,0.618842797854086,0,2,1
51,3,tool,0,0,animals,2,t_246.png,246,tbd,429.904339145396,436.826208329075,6.86232446704254,tool,0.737610610779484,0,1,1
52,3,tool,0,0,animals,2,t_279.png,279,tbd,439.395160169071,444.599054942152,5.13552891356708,tool,0.801759085069534,0,1,1
53,3,animal,0,0,animals,2,a_100.png,100,tbd,447.167962881037,453.05573228759,5.82596833375931,animal,0.91531668836069,0,2,1
54,3,animal,0,0,animals,2,a_063.png,63,tbd,455.607949687901,462.413232110433,6.74063017573957,,2.51272541574872,0,,0
55,3,animal,0,0,animals,2,a_124.png,124,tbd,464.931928612642,471.520546698575,6.49936371733568,tool,1.46580466827345,0,1,0
56,3,tool,0,0,animals,2,t_287.png,287,tbd,474.072488905744,479.960259204773,5.82236257424508,tool,0.608081463968119,0,1,1
57,3,tool,0,0,animals,2,t_346.png,346,tbd,482.529205112481,488.516918645695,5.92728288734301,tool,0.938546140108883,0,1,1
58,3,tool,0,0,animals,2,t_336.png,336,tbd,491.085895723791,496.490213327944,5.32982220733381,tool,1.10136428822625,0,1,1
59,3,animal,0,0,animals,2,a_084.png,84,tbd,499.042169689891,507.098419851875,7.909958279418,animal,0.603436988751128,0,2,1
60,3,tool,0,0,animals,2,t_192.png,192,tbd,509.683886139827,517.056410702771,7.30724769543337,tool,1.00859946922265,0,1,1
