trial,phase,object,toShock,seenBefore,shockedCategory,responseSide,filename,num,name,onsetFixationCross,onsetStimulus,interTrialTime,response,reactionTime,wasShocked,buttonPressed,isResponseCorrect
1,2,tool,0,0,animals,2,t_327.png,327,tbd,0.0129826793090615,6.16790426292937,6.09238533608061,0,0.970450191682176,0,2,1
2,2,tool,0,0,animals,2,t_279.png,279,tbd,10.7382618063239,17.1600305983375,6.35883244033527,0,2.07486786200025,0,2,1
3,2,tool,0,0,animals,2,t_252.png,252,tbd,21.7305337320104,30.4541165004557,8.6729521081726,0,0.759107194706303,0,2,1
4,2,animal,1,0,animals,2,a_043.png,43,tbd,35.0246266371105,44.5823529761328,9.4944864823906,1,0.556301797943888,1,1,1
5,2,tool,0,0,animals,2,t_308.png,308,tbd,49.3362198370596,57.5426017503523,8.15452692263611,0,0.634592534028343,0,2,1
6,2,animal,0,0,animals,2,a_048.png,48,tbd,62.113173808506,69.3357321296098,7.16211117779614,1,0.539827622586017,0,1,0
7,2,animal,1,0,animals,2,a_009.png,9,tbd,73.8893834615228,81.2617387926402,7.31524297799073,1,0.704371070733032,1,1,1
8,2,animal,0,0,animals,2,a_002.png,2,tbd,86.0325326271668,94.6227397064067,8.53501022266727,1,1.09485245440737,0,1,0
9,2,tool,0,0,animals,2,t_356.png,356,tbd,99.1765033204938,106.532303224285,7.30001187347144,0,0.65459231585919,0,2,1
10,2,tool,0,0,animals,2,t_278.png,278,tbd,111.102882907046,117.191106885144,6.03019190470524,0,0.709299951788125,0,2,1
11,2,animal,1,0,animals,2,a_073.png,73,tbd,121.761466386019,130.318464347016,8.40880618862668,1,0.483280183310853,1,1,1
12,2,tool,0,0,animals,2,t_184.png,184,tbd,135.088915242912,141.293802870594,6.14773916357268,0,0.933476935668295,0,2,1
13,2,tool,0,0,animals,2,t_332.png,332,tbd,145.864303130173,154.087688598927,8.16379740224271,0,0.730994306111825,0,2,1
14,2,tool,0,0,animals,2,t_312.png,312,tbd,158.657999036437,165.029721058127,6.304335789168,0,0.62235326580776,0,2,1
15,2,animal,0,0,animals,2,a_147.png,147,tbd,169.600186801985,176.005208988609,6.34448377725154,1,0.383310686331242,0,1,0
16,2,animal,1,0,animals,2,a_056.png,56,tbd,180.559045302387,190.01677856567,9.31698490192444,1,0.435252205250436,1,1,1
17,2,tool,0,0,animals,2,t_201.png,201,tbd,194.77055783711,202.726860941671,7.89252858714026,0,0.512498579104431,0,2,1
18,2,tool,0,0,animals,2,t_241.png,241,tbd,207.280682419867,213.402293378378,6.04018633802658,0,0.494482404359587,0,2,1
19,2,tool,0,0,animals,2,t_245.png,245,tbd,217.972668477501,227.430322448701,9.37672591420543,0,0.756040727224899,0,2,1
20,2,animal,1,0,animals,2,a_162.png,162,tbd,231.984008016858,239.423090974036,7.37412283428964,1,0.507699446265178,1,1,1
21,2,tool,0,0,animals,2,t_224.png,224,tbd,244.19394495662,251.399458004027,7.14545946885356,0,0.545754444105114,0,2,1
22,2,animal,1,0,animals,2,a_096.png,96,tbd,255.953408590231,266.028300789665,9.98231167440358,1,0.546328596930834,1,1,1
23,2,animal,1,0,animals,2,a_093.png,93,tbd,270.798759101999,279.339038080198,8.48334334350666,1,0.510176559862884,1,1,1
24,2,tool,0,0,animals,2,t_207.png,207,tbd,284.092848335971,290.664566326424,6.52225319328459,0,0.67696026925114,0,2,1
25,2,animal,1,0,animals,2,a_004.png,4,tbd,295.218535375221,302.607595070189,7.33684825299512,1,0.597473144276591,1,1,1
26,2,tool,0,0,animals,2,t_323.png,323,tbd,307.378367255766,315.584854629407,8.05803572667888,0,0.645592141532688,0,2,1
27,2,animal,1,0,animals,2,a_159.png,159,tbd,320.15542120445,328.445283061737,8.22252313281674,1,0.734559656542842,1,1,1
28,2,tool,0,0,animals,2,t_281.png,281,tbd,333.216001911333,339.938057619125,6.6390196466743,0,0.705314133978391,0,2,1
29,2,animal,0,0,animals,2,a_024.png,24,tbd,344.508464255781,351.247240076918,6.67246899013172,1,0.774502962965926,0,1,0
30,2,tool,0,0,animals,2,t_289.png,289,tbd,355.800888011428,363.923961762306,8.05598610606846,0,0.577189759795147,0,2,1
31,2,tool,0,0,animals,2,t_336.png,336,tbd,368.494549156494,374.882933514422,6.3358659867852,0,0.514701057032653,0,2,1
32,2,tool,0,0,animals,2,t_260.png,260,tbd,379.436727518234,388.377327342481,8.87312329824444,0,0.513873564992537,0,2,1
33,2,animal,0,0,animals,2,a_057.png,57,tbd,392.930947826924,399.953148819452,6.96029184243687,1,0.587309745609673,0,1,0
34,2,animal,1,0,animals,2,a_125.png,125,tbd,404.523677385921,412.59690207825,8.00336076647476,1,0.717092853356007,1,1,1
35,2,animal,1,0,animals,2,a_117.png,117,tbd,417.367399877621,427.208463013027,9.70361408762844,1,0.633061128330155,1,1,1
36,2,tool,0,0,animals,2,t_221.png,221,tbd,431.96254833644,441.787223658681,9.75819370598626,0,0.617880076482834,0,2,1
37,2,tool,0,0,animals,2,t_231.png,231,tbd,446.35752397529,454.564239185333,8.13865093395582,0,0.858258535496134,0,2,1
38,2,animal,1,0,animals,2,a_019.png,19,tbd,459.117846594832,468.141888928967,8.8863407411302,1,0.838166378009191,1,1,1
39,2,animal,0,0,animals,2,a_088.png,88,tbd,472.912348341953,482.486835129548,9.5019326036242,1,1.06666435080479,0,1,0
40,2,animal,1,0,animals,2,a_059.png,59,tbd,487.0571328728,493.779119667623,6.59037108621971,1,0.590759227328817,1,1,1
41,2,tool,0,0,animals,2,t_216.png,216,tbd,498.533093223537,504.621375597508,6.0156640569232,0,0.591953410272254,0,2,1
42,2,tool,0,0,animals,2,t_194.png,194,tbd,509.175085795672,518.849488190415,9.61486662501399,0,0.622348046676052,0,2,1
43,2,tool,0,0,animals,2,t_193.png,193,tbd,523.419941070384,532.577097259149,9.10373343280719,0,0.70318692427827,0,2,1
44,2,animal,0,0,animals,2,a_145.png,145,tbd,537.147670831415,543.903221216922,6.69325214510107,1,0.610462953209208,0,1,0
45,2,animal,0,0,animals,2,a_030.png,30,tbd,548.473514119971,558.414901524891,9.88402340808956,1,0.737299308060756,0,1,0
46,2,animal,1,0,animals,2,a_151.png,151,tbd,562.985303425427,571.124928245314,8.08955770120319,1,0.998900207567203,1,1,1
47,2,tool,0,0,animals,2,t_298.png,298,tbd,575.895701498761,584.352397306695,8.40337650712606,0,0.490793540746381,0,2,1
48,2,animal,0,0,animals,2,a_130.png,130,tbd,588.922961927143,596.729300893596,7.73990978404362,0,0.92836615519991,0,2,1
49,2,animal,1,0,animals,2,a_142.png,142,tbd,601.282922303293,609.939998525802,8.51335032806002,1,0.548040236382803,1,1,1
50,2,tool,0,0,animals,2,t_357.png,357,tbd,614.710460991158,621.916272617178,7.14034948181679,0,0.55823570452776,0,2,1
51,2,tool,0,0,animals,2,t_215.png,215,tbd,626.469970150989,635.560447645952,9.0266300724504,0,0.547582575200067,0,2,1
52,2,animal,1,0,animals,2,a_122.png,122,tbd,640.131033945247,648.23766413175,8.02890472171112,0,0.604829242704,1,2,0
53,2,animal,0,0,animals,2,a_095.png,95,tbd,653.008119766644,661.648484458445,8.58676308544827,1,0.821488280758786,0,1,0
54,2,animal,1,0,animals,2,a_135.png,135,tbd,666.202133657491,673.524680835759,7.27053770123233,1,0.89772451340832,1,1,1
55,2,tool,0,0,animals,2,t_226.png,226,tbd,678.2952587455,685.617909593399,7.25013521931489,0,0.623949317141523,0,2,1
56,2,tool,0,0,animals,2,t_227.png,227,tbd,690.171522188142,698.511554801364,8.29018283764646,0,0.615754769100022,0,2,1
57,2,tool,0,0,animals,2,t_337.png,337,tbd,703.065311248592,711.30538141674,8.17306119170515,0,0.551379140291829,0,2,1
58,2,animal,1,0,animals,2,a_068.png,68,tbd,715.87566910177,724.849616500458,8.91144892694817,1,0.917641270476452,1,1,1
59,2,animal,1,0,animals,2,a_049.png,49,tbd,729.620134481829,735.908343828771,6.22895532058788,1,0.672240183255781,1,1,1
60,2,animal,1,0,animals,2,a_164.png,164,tbd,740.679133277961,750.086764912201,9.32945289301463,1,0.670331975856243,1,1,1
