trial,phase,object,toShock,seenBefore,shockedCategory,responseSide,filename,num,name,onsetFixationCross,onsetStimulus,interTrialTime,response,reactionTime,wasShocked,buttonPressed,isResponseCorrect
1,1,tool,0,0,animals,2,t_200.png,200,tbd,0.00771425179226526,7.23018717432086,7.14595531999226,tool,0.600563259533942,0,1,1
2,1,tool,0,0,animals,2,t_254.png,254,tbd,9.98232503887715,16.320845052203,6.24616646388051,tool,0.801057331466097,0,1,1
3,1,animal,0,0,animals,2,a_091.png,91,tbd,18.8729117047247,24.4272465064607,5.49153127862863,animal,0.435654923598008,0,2,1
4,1,animal,0,0,animals,2,a_034.png,34,tbd,26.97945124277,33.2010441529509,6.15444733277192,animal,0.83130006427416,0,2,1
5,1,tool,0,0,animals,2,t_215.png,215,tbd,35.7698490033726,42.2416832265939,6.37402692899297,tool,0.630941727834113,0,1,1
6,1,tool,0,0,animals,2,t_306.png,306,tbd,44.8103259303899,50.8483274001463,5.95523812974625,tool,0.576458974603383,0,1,1
7,1,tool,0,0,animals,2,t_357.png,357,tbd,53.4004343895763,57.7704688727505,4.30913642778097,tool,0.597378435341568,0,1,1
8,1,animal,0,0,animals,2,a_102.png,102,tbd,60.3392409614174,65.0761258838849,4.64327748963875,animal,0.607867160158378,0,2,1
9,1,tool,0,0,animals,2,t_308.png,308,tbd,67.6450387153376,75.6847661542219,7.98275724446266,tool,0.667407046781079,0,1,1
10,1,animal,0,0,animals,2,a_023.png,23,tbd,78.236734894504,84.5248873347691,6.20087036843239,animal,0.576351555579947,0,2,1
11,1,animal,0,0,animals,2,a_016.png,16,tbd,87.0937435557477,93.6320216593854,6.47575536677291,animal,0.5544232389326,0,2,1
12,1,animal,0,0,animals,2,a_047.png,47,tbd,96.200916867163,100.387395953155,4.10885905209816,animal,0.616108353264053,0,2,1
13,1,tool,0,0,animals,2,t_220.png,220,tbd,102.956212402914,108.12700329822,5.08732160137022,tool,0.77566685564716,0,1,1
14,1,tool,0,0,animals,2,t_322.png,322,tbd,110.678971991257,118.284980086028,7.52067263905553,tool,0.576831184782179,0,1,1
15,1,tool,0,0,animals,2,t_294.png,294,tbd,120.836978522032,128.076048093144,7.16335544758565,tool,0.553954178207505,0,1,1
16,1,animal,0,0,animals,2,a_081.png,81,tbd,130.644702514643,137.633364084799,6.91401439458493,animal,0.699723073946302,0,2,1
17,1,animal,0,0,animals,2,a_106.png,106,tbd,140.218911448317,146.857520895639,6.54369898306884,animal,1.44167984761475,0,2,1
18,1,animal,0,0,animals,2,a_082.png,82,tbd,149.426158643572,155.948016610559,6.43325714359491,animal,0.631334532725077,0,2,1
19,1,tool,0,0,animals,2,t_189.png,189,tbd,158.516662692678,165.355230974048,6.75916799489328,tool,0.916266426393008,0,1,1
20,1,animal,0,0,animals,2,a_137.png,137,tbd,167.924108182781,173.544989574962,5.53691320732868,animal,0.881630391418639,0,2,1
21,1,tool,0,0,animals,2,t_337.png,337,tbd,176.113895237792,180.93433888809,4.72587181072379,tool,0.981394434771232,0,1,1
22,1,tool,0,0,animals,2,t_351.png,351,tbd,183.503021621949,191.375932472897,7.7933362157176,tool,0.645943002625017,0,1,1
23,1,tool,0,0,animals,2,t_265.png,265,tbd,193.927902459999,200.783085137691,6.77658175415866,tool,0.690930204861502,0,1,1
24,1,animal,0,0,animals,2,a_060.png,60,tbd,203.351992490981,209.489887142597,6.06559016614459,animal,0.766186490230439,0,2,1
25,1,tool,0,0,animals,2,t_288.png,288,tbd,212.058842308768,219.815009735285,7.6668009515986,tool,0.610264377515477,0,1,1
26,1,tool,0,0,animals,2,t_253.png,253,tbd,222.366965416553,230.03973999428,7.58136827702292,tool,0.764705160178664,0,1,1
27,1,tool,0,0,animals,2,t_256.png,256,tbd,232.591698116747,236.961630608714,4.29048944884401,tool,0.598912052301216,0,1,1
28,1,animal,0,0,animals,2,a_064.png,64,tbd,239.530535400094,244.284092876492,4.67067101866648,animal,0.646554610273256,0,2,1
29,1,tool,0,0,animals,2,t_343.png,343,tbd,246.852938714876,251.823327249068,4.88909975388394,tool,1.00541734531703,0,1,1
30,1,animal,0,0,animals,2,a_027.png,27,tbd,254.392271091334,260.847374573947,6.36213888853748,animal,0.91255968628252,0,2,1
31,1,animal,0,0,animals,2,a_072.png,72,tbd,263.399329832599,271.02186185861,7.52767474189774,animal,1.29621564131537,0,2,1
32,1,animal,0,0,animals,2,a_167.png,167,tbd,273.590708949006,279.52845649698,5.86149841099988,animal,0.801803744515496,0,2,1
33,1,tool,0,0,animals,2,t_210.png,210,tbd,282.097452147241,287.451473498526,5.26791851148106,tool,0.712751428592355,0,1,1
34,1,tool,0,0,animals,2,t_185.png,185,tbd,290.020370370544,296.675624573948,6.57558341854682,tool,0.632779380255101,0,1,1
35,1,animal,0,0,animals,2,a_117.png,117,tbd,299.227581381324,303.931273997525,4.62860039974044,animal,0.590280409810589,0,2,1
36,1,tool,0,0,animals,2,t_191.png,191,tbd,306.500017844702,311.220410384875,4.62601236800324,tool,0.89326694137435,0,1,1
37,1,animal,0,0,animals,2,a_065.png,65,tbd,313.772380721126,318.175888754716,4.31576469634029,animal,0.601850398690431,0,2,1
38,1,animal,0,0,animals,2,a_025.png,25,tbd,320.744533736947,328.083695033626,7.25694745610322,animal,0.615123372974608,0,2,1
39,1,tool,0,0,animals,2,t_207.png,207,tbd,330.635669133956,336.890587787518,6.17332698370001,tool,0.615365249510091,0,1,1
40,1,tool,0,0,animals,2,t_329.png,329,tbd,339.459291762202,344.146115971428,4.6165520870135,tool,0.614058364804464,0,1,1
41,1,tool,0,0,animals,2,t_276.png,276,tbd,346.715054288285,354.654629168911,7.85103592268337,tool,0.631701180132154,0,1,1
42,1,animal,0,0,animals,2,a_005.png,5,tbd,357.223283075901,362.860814697133,5.5605657167432,animal,0.651614144652171,0,2,1
43,1,animal,0,0,animals,2,a_155.png,155,tbd,365.429788757421,371.134293699794,5.62039188298436,animal,0.644256714158246,0,2,1
44,1,tool,0,0,animals,2,t_359.png,359,tbd,373.686248110621,378.940245204714,5.18253328292926,tool,0.692372467110999,0,1,1
45,1,animal,0,0,animals,2,a_115.png,115,tbd,381.509127463801,387.18026665585,5.59245644520007,animal,0.489507909212989,0,2,1
46,1,tool,0,0,animals,2,t_277.png,277,tbd,389.732240351995,396.587358278195,6.79177520945076,tool,0.927561017445555,0,1,1
47,1,animal,0,0,animals,2,a_021.png,21,tbd,399.156363068418,406.578633462864,7.34938842863742,animal,0.637380499028041,0,2,1
48,1,animal,0,0,animals,2,a_172.png,172,tbd,409.147533109398,413.567646774719,4.33957291308195,animal,0.574461262160185,0,2,1
49,1,tool,0,0,animals,2,t_239.png,239,tbd,416.136375352717,423.89251578716,7.6866853241687,tool,0.673715514912828,0,1,1
50,1,animal,0,0,animals,2,a_070.png,70,tbd,426.444489110533,434.050501712332,7.53856539459859,animal,0.589005426805329,0,2,1
51,1,animal,0,0,animals,2,a_087.png,87,tbd,436.619209498341,443.80822626259,7.10045150131424,animal,0.996294752315862,0,2,1
52,1,tool,0,0,animals,2,t_320.png,320,tbd,446.37687676244,453.832742414233,7.35941515420184,tool,0.934006791574802,0,1,1
53,1,tool,0,0,animals,2,t_274.png,274,tbd,456.401474092274,460.871373836151,4.39309179133362,tool,0.775513632015191,0,1,1
54,1,tool,0,0,animals,2,t_263.png,263,tbd,463.440351185465,471.346589040353,7.83017417884206,tool,0.601353735880821,0,1,1
55,1,animal,0,0,animals,2,a_073.png,73,tbd,473.915231696903,478.151950368516,4.1503325661235,animal,1.01517689006198,0,2,1
56,1,animal,0,0,animals,2,a_151.png,151,tbd,480.703924067257,487.542687054536,6.76449221826735,animal,0.599578950567889,0,2,1
57,1,animal,0,0,animals,2,a_011.png,11,tbd,490.111326422061,497.383704152838,7.20974868684382,animal,0.700677207446802,0,2,1
58,1,tool,0,0,animals,2,t_273.png,273,tbd,499.952445700553,507.341620370049,7.32636170147751,tool,0.828045089841339,0,1,1
59,1,animal,0,0,animals,2,a_129.png,129,tbd,509.893593738071,516.882253050817,6.92280424544069,animal,0.617398660483104,0,2,1
60,1,animal,0,0,animals,2,a_014.png,14,tbd,519.45112854287,525.572518777005,6.05788412091924,animal,0.557199463907409,0,2,1
