trial,phase,object,toShock,seenBefore,shockedCategory,responseSide,filename,num,name,onsetFixationCross,onsetStimulus,interTrialTime,response,reactionTime,wasShocked,buttonPressed,isResponseCorrect
1,1,animal,0,0,animals,1,a_160.png,160,tbd,0.0200842777885555,7.74291255809464,7.60789513734037,animal,0.978556885540456,0,1,1
2,1,animal,0,0,animals,1,a_094.png,94,tbd,10.3283673107294,16.7669754210367,6.32590913599382,animal,0.704625328107568,0,1,1
3,1,animal,0,0,animals,1,a_018.png,18,tbd,19.3357146950166,25.0900052709848,5.67614106326918,animal,0.636907382850268,0,1,1
4,1,tool,0,0,animals,1,t_221.png,221,tbd,27.6591144667434,33.6971370110404,5.94307683222404,tool,0.709168866314712,0,2,1
5,1,animal,0,0,animals,1,a_174.png,174,tbd,36.2660403386813,40.7863930553331,4.42267757304676,animal,0.395328414556843,0,1,1
6,1,tool,0,0,animals,1,t_303.png,303,tbd,43.3551125520257,48.6761409732317,5.20761259357072,tool,0.57668583245902,0,2,1
7,1,tool,0,0,animals,1,t_298.png,298,tbd,51.244840635251,55.4148203864689,4.09465438029346,animal,0.360256511481452,0,1,0
8,1,tool,0,0,animals,1,t_230.png,230,tbd,58.000307746802,64.5554133987177,6.471681809137,tool,0.611077524579741,0,2,1
9,1,animal,0,0,animals,1,a_096.png,96,tbd,67.1243376457916,71.2276777679582,4.01474328266176,animal,0.5089784909527,0,1,1
10,1,animal,0,0,animals,1,a_137.png,137,tbd,73.7964448148938,81.0689925037384,7.19105734062849,animal,0.576230496970766,0,1,1
11,1,tool,0,0,animals,1,t_293.png,293,tbd,83.6377292394723,88.425090459344,4.70126942518663,tool,0.667536485305163,0,2,1
12,1,tool,0,0,animals,1,t_345.png,345,tbd,90.9936913770993,96.4481642528617,5.35524977530332,tool,0.7333296356868,0,2,1
13,1,tool,0,0,animals,1,t_213.png,213,tbd,99.0168619620546,104.504324242746,5.41257642040249,tool,0.643871371896012,0,2,1
14,1,animal,0,0,animals,1,a_097.png,97,tbd,107.05670061824,113.645349968049,6.50431337165661,animal,0.593852301338302,0,1,1
15,1,animal,0,0,animals,1,a_044.png,44,tbd,116.230839780549,124.237148035616,7.92247329351864,animal,0.562547808614795,0,1,1
16,1,tool,0,0,animals,1,t_340.png,340,tbd,126.789353746324,133.094405696785,6.22391513811092,tool,0.507513483279695,0,2,1
17,1,tool,0,0,animals,1,t_323.png,323,tbd,135.663197028569,140.400175420747,4.65672881871663,tool,0.551017752527059,0,2,1
18,1,tool,0,0,animals,1,t_277.png,277,tbd,142.969118057575,148.823652357631,5.77011302014924,tool,0.689841207841141,0,2,1
19,1,animal,0,0,animals,1,a_035.png,35,tbd,151.409288750922,158.798638044951,7.3035648615942,animal,0.537249256768405,0,1,1
20,1,animal,0,0,animals,1,a_058.png,58,tbd,161.367340936841,167.789274654712,6.32984486214773,animal,0.48683729210336,0,1,1
21,1,tool,0,0,animals,1,t_348.png,348,tbd,170.357966173961,176.329205640001,5.89848900038196,tool,0.625523076346326,0,2,1
22,1,animal,0,0,animals,1,a_077.png,77,tbd,178.898212456285,183.218431303613,4.23288743877642,animal,0.488401089869171,0,1,1
23,1,tool,0,0,animals,1,t_190.png,190,tbd,185.77044077479,192.692749257148,6.83900483385302,tool,0.638267803866825,0,2,1
24,1,animal,0,0,animals,1,a_177.png,177,tbd,195.244791815238,202.283875832981,6.93362840952976,animal,0.527493595347892,0,1,1
25,1,tool,0,0,animals,1,t_195.png,195,tbd,204.83591828422,209.105787808311,4.20305402298585,tool,0.705152785372547,0,2,1
26,1,animal,0,0,animals,1,a_123.png,123,tbd,211.674762414317,216.411646234042,4.66002380422233,animal,0.78931790761726,0,1,1
27,1,animal,0,0,animals,1,a_090.png,90,tbd,218.98065339828,224.701960836776,5.62851028365868,animal,0.618297874122618,0,1,1
28,1,tool,0,0,animals,1,t_241.png,241,tbd,227.270717497547,234.493287049774,7.13986410924685,tool,0.645348363578478,0,2,1
29,1,tool,0,0,animals,1,t_225.png,225,tbd,237.061996402051,242.06617165972,4.90754643841253,animal,0.488670758051057,0,1,0
30,1,animal,0,0,animals,1,a_175.png,175,tbd,244.634824884949,249.388404303474,4.68092990794729,animal,0.661009406829407,0,1,1
31,1,tool,0,0,animals,1,t_269.png,269,tbd,251.974056978023,258.76294523757,6.70785716453609,tool,0.735503416286065,0,2,1
32,1,animal,0,0,animals,1,a_176.png,176,tbd,261.331644285477,267.236440476122,5.81989988284757,animal,0.536405232206789,0,1,1
33,1,animal,0,0,animals,1,a_105.png,105,tbd,269.805170174617,276.477153225564,6.5897899866987,animal,0.612914098351894,0,1,1
34,1,animal,0,0,animals,1,a_034.png,34,tbd,279.045981942402,286.952231782225,7.83471726200168,animal,0.6412186945131,0,1,1
35,1,tool,0,0,animals,1,t_297.png,297,tbd,289.521142274082,294.77522852509,5.17080289657258,tool,0.761803644648126,0,2,1
36,1,tool,0,0,animals,1,t_317.png,317,tbd,297.344136130747,302.931750510942,5.51402012603896,tool,0.799403188124643,0,2,1
37,1,tool,0,0,animals,1,t_324.png,324,tbd,305.500754318334,311.372229545882,5.77908256311396,tool,0.675301932857337,0,2,1
38,1,animal,0,0,animals,1,a_004.png,4,tbd,313.924238599514,318.944868822851,4.92228855953425,animal,0.623215705321627,0,1,1
39,1,animal,0,0,animals,1,a_162.png,162,tbd,321.513706431471,327.134648365765,5.53885811936438,animal,0.858291257797646,0,1,1
40,1,tool,0,0,animals,1,t_272.png,272,tbd,329.703671909546,336.092211048561,6.30295829918323,tool,0.803526799153133,0,2,1
41,1,animal,0,0,animals,1,a_147.png,147,tbd,338.66095121138,346.550410945257,7.82619724393227,animal,0.680325744469883,0,1,1
42,1,animal,0,0,animals,1,a_149.png,149,tbd,349.119394676225,355.324431475749,6.11968824105364,animal,0.67656363482206,0,1,1
43,1,tool,0,0,animals,1,t_251.png,251,tbd,357.893169005675,364.548317131609,6.57751107316437,tool,0.877059615914277,0,2,1
44,1,tool,0,0,animals,1,t_202.png,202,tbd,367.100636590149,371.971285950355,4.7918158804305,tool,0.622389430297062,0,2,1
45,1,tool,0,0,animals,1,t_237.png,237,tbd,374.523315342285,381.562145511918,6.97308436170537,tool,0.773780166263577,0,2,1
46,1,animal,0,0,animals,1,a_038.png,38,tbd,384.13109634462,389.935480258524,5.72789374205594,animal,0.905860739987475,0,1,1
47,1,animal,0,0,animals,1,a_088.png,88,tbd,392.521209672497,397.158161544733,4.55298985729872,animal,0.579393883595458,0,1,1
48,1,animal,0,0,animals,1,a_086.png,86,tbd,399.727113970103,406.76607566321,6.96777495170199,animal,0.699831090021007,0,1,1
49,1,tool,0,0,animals,1,t_185.png,185,tbd,409.334833339149,413.905269155321,4.47805778708785,tool,0.7469214043374,0,2,1
50,1,tool,0,0,animals,1,t_276.png,276,tbd,416.473957829267,423.22941335512,6.66876393840003,tool,0.767208177555403,0,2,1
51,1,animal,0,0,animals,1,a_047.png,47,tbd,425.79816690443,430.43527725021,4.54477365825804,animal,0.621500278318763,0,1,1
52,1,tool,0,0,animals,1,t_355.png,355,tbd,433.020682344106,437.690926554905,4.5871343095248,tool,0.678184052750794,0,2,1
53,1,tool,0,0,animals,1,t_336.png,336,tbd,440.259928552935,445.096823491615,4.76034478028924,tool,0.735493237353467,0,2,1
54,1,animal,0,0,animals,1,a_111.png,111,tbd,447.665922636958,452.836460414725,5.09184401339394,animal,0.59718556777284,0,1,1
55,1,animal,0,0,animals,1,a_076.png,76,tbd,455.405475578269,463.161706637588,7.67279790221442,animal,0.516177855510023,0,1,1
56,1,animal,0,0,animals,1,a_173.png,173,tbd,465.730518266772,470.667642388051,4.86712666388498,animal,0.516680648936926,0,1,1
57,1,tool,0,0,animals,1,t_295.png,295,tbd,473.236587354354,480.175477474624,6.86786010376592,tool,0.733137907108357,0,2,1
58,1,tool,0,0,animals,1,t_260.png,260,tbd,482.744282614727,487.231310053651,4.39849113537144,tool,0.758472436597458,0,2,1
59,1,tool,0,0,animals,1,t_258.png,258,tbd,489.783324973683,494.737146552589,4.86693288495727,tool,0.621987067556347,0,2,1
60,1,animal,0,0,animals,1,a_110.png,110,tbd,497.306125026986,501.893069470856,4.49202393090739,animal,0.835430005038006,0,1,1
