trial,phase,object,toShock,seenBefore,shockedCategory,responseSide,filename,num,name,onsetFixationCross,onsetStimulus,interTrialTime,response,reactionTime,wasShocked,buttonPressed,isResponseCorrect
1,2,tool,1,0,tools,1,t_219.png,219,tbd,0.0163320754782035,8.67333366343155,8.5801116766488,0,1.59133183438826,1,2,0
2,2,animal,0,0,tools,1,a_034.png,34,tbd,13.427123165282,22.0174714926707,8.51501966988617,0,1.50674427764534,0,2,1
3,2,tool,1,0,tools,1,t_191.png,191,tbd,26.5710928722419,34.7609856175277,8.13671877907045,1,1.42570426540988,1,1,1
4,2,animal,0,0,tools,1,a_024.png,24,tbd,39.531590072158,48.5221353607867,8.92745079260896,0,0.854939255103091,0,2,1
5,2,tool,0,0,tools,1,t_330.png,330,tbd,53.0758919729979,61.5328017389002,8.39018654347164,1,1.29177811693808,0,1,0
6,2,tool,0,0,tools,1,t_344.png,344,tbd,66.0864362311422,74.9103190568876,8.75296887766143,1,1.65079969728686,0,1,0
7,2,animal,0,0,tools,1,a_167.png,167,tbd,79.4806156960622,88.2544609708857,8.70070143668358,1,1.63717595030357,0,1,0
8,2,tool,1,0,tools,1,t_239.png,239,tbd,92.8080580836813,100.247499728344,7.37500555186507,1,1.95559832306753,1,1,1
9,2,animal,0,0,tools,1,a_105.png,105,tbd,105.001287582016,113.991958251052,8.91673184941013,0,1.05454598798497,0,2,1
10,2,tool,1,0,tools,1,t_206.png,206,tbd,118.545587079434,127.085899538159,8.44488658613522,1,1.22014203247454,1,1,1
11,2,tool,1,0,tools,1,t_332.png,332,tbd,131.839696523361,139.245748759347,7.33655723542146,1,1.00673310442835,1,1,1
12,2,tool,1,0,tools,1,t_237.png,237,tbd,143.999547185495,151.488960135706,7.43583244491555,1,1.05198554062736,1,1,1
13,2,animal,0,0,tools,1,a_125.png,125,tbd,156.259461382288,164.149246203788,7.82197030450792,0,2.04618592632505,0,2,1
14,2,animal,0,0,tools,1,a_080.png,80,tbd,168.719552144879,177.860359632143,9.05944017949336,0,0.856634045112514,0,2,1
15,2,tool,1,0,tools,1,t_306.png,306,tbd,182.430660184302,192.171908742619,9.6822569287048,1,0.919526300534926,1,1,1
16,2,tool,1,0,tools,1,t_353.png,353,tbd,196.925720039668,206.967254691337,9.95859606313063,1,1.07971542009363,1,1,1
17,2,tool,1,0,tools,1,t_228.png,228,tbd,211.737741042598,218.192786997981,6.39169357823394,1,1.19460419247844,1,1,1
18,2,animal,0,0,tools,1,a_067.png,67,tbd,222.963495005586,231.870766278158,8.81996960252429,0,1.1350392772365,0,2,1
19,2,animal,0,0,tools,1,a_069.png,69,tbd,236.441080422843,246.199028437999,9.69985716609482,0,0.841357432858786,0,2,1
20,2,animal,0,0,tools,1,a_089.png,89,tbd,250.752661488372,257.991883011842,7.17635312125289,0,0.726930423667,0,2,1
21,2,tool,0,0,tools,1,t_319.png,319,tbd,262.545543279501,268.633875006362,6.01872153385533,1,0.813329022987091,0,1,0
22,2,animal,0,0,tools,1,a_093.png,93,tbd,273.204183110029,280.193248215011,6.9216575039749,0,0.749373173975982,0,2,1
23,2,tool,0,0,tools,1,t_248.png,248,tbd,284.763543961248,293.087004045638,8.24679918397042,1,1.6741511215514,0,1,0
24,2,animal,0,0,tools,1,a_007.png,7,tbd,297.640640288293,303.745639688254,6.03682286235866,0,0.990860387382781,0,2,1
25,2,animal,0,0,tools,1,a_051.png,51,tbd,308.299271949305,316.30573848622,7.95117641368251,0,0.78719636259666,0,2,1
26,2,animal,0,0,tools,1,a_028.png,28,tbd,320.876125773393,330.050281032896,9.08993651835497,0,0.732158790804533,0,2,1
27,2,tool,1,0,tools,1,t_253.png,253,tbd,334.620586355977,341.976356559793,7.30740496000061,1,1.14153682236429,1,1,1
28,2,animal,0,0,tools,1,a_073.png,73,tbd,346.747074177862,356.004626534021,9.18950960268567,0,0.989705351865268,0,2,1
29,2,tool,0,0,tools,1,t_350.png,350,tbd,360.558261609734,367.21368227665,6.5937454308851,1,0.891238076574155,0,1,0
30,2,tool,1,0,tools,1,t_308.png,308,tbd,371.784025080489,379.240092283802,7.3842657910191,1,1.49810528089802,1,1,1
31,2,animal,0,0,tools,1,a_090.png,90,tbd,384.010584983245,393.668436204978,9.58427352399967,0,0.807341331135831,0,2,1
32,2,animal,0,0,tools,1,a_094.png,94,tbd,398.238777910954,408.013420304405,9.69436941877341,0,0.820826849823789,0,2,1
33,2,tool,1,0,tools,1,t_207.png,207,tbd,412.567048137618,420.957245437001,8.31408607933309,1,0.942521046692491,1,1,1
34,2,tool,0,0,tools,1,t_328.png,328,tbd,425.711015338922,432.249715985805,6.45703202952946,1,1.08947124536462,0,1,0
35,2,tool,1,0,tools,1,t_285.png,285,tbd,436.803338464162,444.676295735988,7.81292522178869,1,0.96543902286794,1,1,1
36,2,animal,0,0,tools,1,a_098.png,98,tbd,449.446923702611,459.355011110269,9.83325246652671,0,0.949093341534535,0,2,1
37,2,animal,0,0,tools,1,a_110.png,110,tbd,463.92531742852,470.580763631386,6.56745167718097,0,0.81280572313517,0,2,1
38,2,animal,0,0,tools,1,a_158.png,158,tbd,475.151061780583,482.523770295013,7.27320138057167,0,0.758330610984558,0,2,1
39,2,tool,1,0,tools,1,t_182.png,182,tbd,487.094077094504,494.216566343664,7.03576462988827,1,0.774805646069581,1,1,1
40,2,animal,0,0,tools,1,a_143.png,143,tbd,498.970362470007,507.944353761064,8.81066954934055,0,0.718493852700703,0,2,1
41,2,animal,0,0,tools,1,a_085.png,85,tbd,512.514682459829,520.988244830818,8.39099345608091,0,0.622182321509172,0,2,1
42,2,tool,1,0,tools,1,t_358.png,358,tbd,525.558559970672,533.148098548923,7.51956793306602,1,0.75576261396418,1,1,1
43,2,tool,1,0,tools,1,t_291.png,291,tbd,537.901891276673,546.258714236314,8.27466423907158,1,0.89362157378855,1,1,1
44,2,animal,0,0,tools,1,a_097.png,97,tbd,551.029200244493,558.251766105985,7.16031212489001,0,0.577018649813908,0,2,1
45,2,animal,0,0,tools,1,a_050.png,50,tbd,562.805393801502,572.646717050424,9.76772222607551,0,0.718522443237816,0,2,1
46,2,tool,1,0,tools,1,t_256.png,256,tbd,577.217060370042,583.855837251169,6.55305972943502,1,0.843907545362526,1,1,1
47,2,animal,0,0,tools,1,a_147.png,147,tbd,588.626309116968,598.50102585748,9.80195322129684,0,0.825227167455523,0,2,1
48,2,animal,0,0,tools,1,a_134.png,134,tbd,603.054656195887,610.911082261433,7.77505249158957,0,0.726592624787372,0,2,1
49,2,tool,1,0,tools,1,t_197.png,197,tbd,615.481385627791,625.422826608779,9.87434137378814,1,1.04441662703357,1,1,1
50,2,tool,0,0,tools,1,t_241.png,241,tbd,630.193306918562,639.317423151195,9.05477814845905,1,0.756332391638352,0,1,0
51,2,animal,0,0,tools,1,a_053.png,53,tbd,643.887727890808,652.961811206209,8.99343484529591,0,0.826347156489646,0,2,1
52,2,tool,1,0,tools,1,t_341.png,341,tbd,657.532127651162,663.903986358193,6.30991397305699,1,1.12574602846144,1,1,1
53,2,animal,0,0,tools,1,a_076.png,76,tbd,668.657787254997,675.846974316672,7.13534250518361,0,0.715091800617301,0,2,1
54,2,tool,1,0,tools,1,t_278.png,278,tbd,680.417313310681,689.524713954679,9.04631660696173,1,0.755901425267439,1,1,1
55,2,animal,0,0,tools,1,a_023.png,23,tbd,694.278543717408,703.536092812208,9.17906227882444,0,0.754052424848851,0,2,1
56,2,tool,0,0,tools,1,t_302.png,302,tbd,708.089716904207,715.028737798777,6.85793608661718,1,0.832820455128967,0,1,0
57,2,tool,0,0,tools,1,t_346.png,346,tbd,719.599040375815,727.622233589162,7.95550799957452,1,0.916679919664602,0,1,0
58,2,tool,0,0,tools,1,t_254.png,254,tbd,732.192583979047,740.049013579957,7.77209498681595,1,0.820412741029941,0,1,0
59,2,animal,0,0,tools,1,a_049.png,49,tbd,744.602630359916,754.393950071926,9.71521850163008,0,0.569992565080611,0,2,1
60,2,animal,0,0,tools,1,a_116.png,116,tbd,758.947570078706,766.437041792324,7.4197969929301,0,0.716337322044637,0,2,1
