trial,phase,object,toShock,seenBefore,shockedCategory,responseSide,filename,num,name,onsetFixationCross,onsetStimulus,interTrialTime,response,reactionTime,wasShocked,buttonPressed,isResponseCorrect
1,2,tool,1,0,tools,1,t_198.png,198,tbd,0.0162217431461613,7.6890380006771,7.59921302836457,0,0.870734274169081,1,2,0
2,2,tool,1,0,tools,1,t_320.png,320,tbd,12.4595446097264,20.4324517833011,7.92753754283558,1,2.15773084931061,1,1,1
3,2,animal,0,0,tools,1,a_137.png,137,tbd,25.2032433586064,33.8434415434785,8.58141848757223,0,0.987180510503094,0,2,1
4,2,tool,1,0,tools,1,t_235.png,235,tbd,38.4139419453641,45.4528267127716,6.98450915950343,1,1.04222783336445,1,1,1
5,2,tool,1,0,tools,1,t_204.png,204,tbd,50.2068093972193,58.930556281699,8.65698424587555,1,0.975935036480223,1,1,1
6,2,animal,0,0,tools,1,a_106.png,106,tbd,63.6843500833784,72.7749384617782,8.96071038073117,0,0.988009970293206,0,2,1
7,2,animal,0,0,tools,1,a_177.png,177,tbd,77.3287659014859,84.7680903619184,7.37977447030159,0,0.794333024266962,0,2,1
8,2,tool,0,0,tools,1,t_301.png,301,tbd,89.3384381247743,95.8270057295158,6.43067413277434,1,0.738848349141335,0,1,0
9,2,tool,0,0,tools,1,t_333.png,333,tbd,100.397398358476,109.688270754687,9.22666518801021,0,0.992125970449706,0,2,1
10,2,tool,1,0,tools,1,t_290.png,290,tbd,114.241908702112,123.733005775535,9.42978670138492,0,1.72789802986517,1,2,0
11,2,animal,0,0,tools,1,a_100.png,100,tbd,128.503476279999,138.511587805588,9.933374504013,0,1.13386431800245,0,2,1
12,2,animal,0,0,tools,1,a_041.png,41,tbd,143.081952350218,152.973038706838,9.83665792188454,0,0.879917208676488,0,2,1
13,2,animal,0,0,tools,1,a_075.png,75,tbd,157.527009984158,166.517502514398,8.92580636534545,0,1.15795165743475,0,2,1
14,2,tool,1,0,tools,1,t_302.png,302,tbd,171.087988473326,180.578668138249,9.42500377894368,0,2.29424496500724,1,2,0
15,2,animal,0,0,tools,1,a_097.png,97,tbd,185.332804616741,193.806067787282,8.40243794804074,0,1.26538414799506,0,2,1
16,2,tool,1,0,tools,1,t_265.png,265,tbd,198.360028024581,207.400527622918,8.97176701429619,0,1.53840087472418,1,2,0
17,2,animal,0,0,tools,1,a_010.png,10,tbd,212.17120932585,220.644784917033,8.40298357847431,0,1.02958444556498,0,2,1
18,2,tool,0,0,tools,1,t_195.png,195,tbd,225.215106236708,232.003674415759,6.70928908270184,0,3.47609730575277,0,2,1
19,2,tool,1,0,tools,1,t_299.png,299,tbd,236.574328898347,244.663964369975,8.01797080489495,1,0.736192349486373,1,1,1
20,2,animal,0,0,tools,1,a_101.png,101,tbd,249.434739104137,255.939915648163,6.42953975509081,0,1.09069819500291,0,2,1
21,2,tool,0,0,tools,1,t_191.png,191,tbd,260.493646276136,266.798658336127,6.24913841468206,0,1.0433589003369,0,2,1
22,2,animal,0,0,tools,1,a_132.png,132,tbd,271.369148948561,278.908627362944,7.38046406978487,0,0.904838997485058,0,2,1
23,2,tool,1,0,tools,1,t_238.png,238,tbd,283.478909135203,292.05237943642,8.50917966611639,1,1.24356464436642,1,1,1
24,2,animal,0,0,tools,1,a_006.png,6,tbd,296.806367503577,303.311670056039,6.42755888992969,0,0.833693935168412,0,2,1
25,2,animal,0,0,tools,1,a_158.png,158,tbd,307.881999854275,314.604008409839,6.58990104121648,0,1.06486015331757,0,2,1
26,2,tool,0,0,tools,1,t_182.png,182,tbd,319.174466969085,328.381673793581,9.13545362020347,0,2.47862678470119,0,2,1
27,2,animal,0,0,tools,1,a_058.png,58,tbd,332.935604181061,339.507477843265,6.51027270695086,0,0.936052949746227,0,2,1
28,2,tool,1,0,tools,1,t_337.png,337,tbd,344.077967344281,352.468020324653,8.31967443378148,1,1.20207450579255,1,1,1
29,2,tool,1,0,tools,1,t_289.png,289,tbd,357.238606004412,366.062237403134,8.773146091588,0,0.914369361777062,1,2,0
30,2,animal,0,0,tools,1,a_104.png,104,tbd,370.832950732482,378.605976539297,7.71355728564293,0,1.14608854747348,0,2,1
31,2,tool,0,0,tools,1,t_359.png,359,tbd,383.15959317112,392.133589845322,8.89601942982883,0,1.65390356706121,0,2,1
32,2,tool,1,0,tools,1,t_294.png,294,tbd,396.687209154581,406.745409934301,9.9929027465041,1,1.99675175002267,1,1,1
33,2,tool,0,0,tools,1,t_181.png,181,tbd,411.515881614203,417.97116556035,6.38842091196302,1,0.710324898820545,0,1,0
34,2,animal,0,0,tools,1,a_029.png,29,tbd,422.524783598619,430.397563094444,7.81859719492895,0,0.848353475648764,0,2,1
35,2,tool,1,0,tools,1,t_317.png,317,tbd,434.968201006792,444.175638918488,9.14068715471431,1,1.27379205868419,1,1,1
36,2,tool,0,0,tools,1,t_277.png,277,tbd,448.929495873756,456.902555434932,7.91775976476434,1,1.4194093415681,0,1,0
37,2,animal,0,0,tools,1,a_001.png,1,tbd,461.472987180838,470.063083513909,8.53343121408486,0,0.703253217841848,0,2,1
38,2,animal,0,0,tools,1,a_142.png,142,tbd,474.633635036662,483.32386930264,8.63041517607388,0,0.952958752644918,0,2,1
39,2,animal,0,0,tools,1,a_129.png,129,tbd,487.877701173213,497.251950979775,9.30882878394019,0,0.737377638884936,0,2,1
40,2,tool,0,0,tools,1,t_308.png,308,tbd,501.822352019572,511.263322232284,9.38592569987235,0,1.0495642393762,0,2,1
41,2,animal,0,0,tools,1,a_103.png,103,tbd,515.833657197993,523.156218916407,7.19211399781075,1,2.72414193104123,0,1,0
42,2,animal,0,0,tools,1,a_136.png,136,tbd,527.709925658961,534.031776893804,6.26189538628893,0,0.791866414139804,0,2,1
43,2,animal,0,0,tools,1,a_117.png,117,tbd,538.585400207161,546.891890726867,8.25491583993204,0,0.710127527025179,0,2,1
44,2,tool,1,0,tools,1,t_264.png,264,tbd,551.445811683945,558.901900212724,7.39715572989488,1,1.30069226269188,1,1,1
45,2,tool,1,0,tools,1,t_339.png,339,tbd,563.65568841646,572.562617525837,8.85053800313558,1,1.33644657519108,1,1,1
46,2,tool,1,0,tools,1,t_321.png,321,tbd,577.333431568051,584.57254194505,7.18615623995271,1,0.758950499886851,1,1,1
47,2,animal,0,0,tools,1,a_021.png,21,tbd,589.326470348758,596.515474981174,7.13563190083268,0,0.703423993236356,0,2,1
48,2,animal,0,0,tools,1,a_090.png,90,tbd,601.085982773373,610.226727061672,9.07469528366208,0,0.749607050649502,0,2,1
49,2,animal,0,0,tools,1,a_105.png,105,tbd,614.797088267387,620.901843852102,6.04496785152101,0,0.66000343835185,0,2,1
50,2,tool,1,0,tools,1,t_271.png,271,tbd,625.472393303233,633.262000315688,7.71970706306987,0,0.978180286532734,1,2,0
51,2,tool,1,0,tools,1,t_354.png,354,tbd,638.015877279369,645.888987790404,7.71718555042399,1,0.793706624055631,1,1,1
52,2,tool,1,0,tools,1,t_188.png,188,tbd,650.642771759038,658.699250524951,7.99353841741866,1,1.61983868153402,1,1,1
53,2,animal,0,0,tools,1,a_107.png,107,tbd,663.46980889688,670.87585360356,7.2735665076203,0,1.4138096504139,0,2,1
54,2,animal,0,0,tools,1,a_146.png,146,tbd,675.446175409368,685.187253542543,9.68884692413619,0,0.69875268607575,0,2,1
55,2,animal,0,0,tools,1,a_169.png,169,tbd,689.757755533621,697.580641124387,7.76368943932495,0,0.705820804432733,0,2,1
56,2,tool,0,0,tools,1,t_194.png,194,tbd,702.134451838931,709.84041492924,7.64784941499346,1,1.38259525351168,0,1,0
57,2,animal,0,0,tools,1,a_160.png,160,tbd,714.411040749514,723.401408024645,8.92983019246288,0,1.11407538482672,0,2,1
58,2,tool,1,0,tools,1,t_324.png,324,tbd,727.97201195969,734.777349270644,6.74959760888466,1,1.20658475367964,1,1,1
59,2,animal,0,0,tools,1,a_176.png,176,tbd,739.53137751051,748.588767675468,8.99200457256687,0,1.16261912662958,0,2,1
60,2,animal,0,0,tools,1,a_062.png,62,tbd,753.15907872422,759.681078039834,6.46087137732908,0,1.15462267062685,0,2,1
