trial,phase,object,toShock,seenBefore,shockedCategory,filename,num,name,onsetFixationCross,onsetStimulus,interTrialTime,response,reactionTime,wasShocked,buttonPressed,isResponseCorrect
1,3,animal,0,0,animals,a_161.png,161,tbd,0.014222425938442,6.82933023508167,6.72819172912126,animal,0.646079106742036,0,1,1
2,3,tool,0,0,animals,t_249.png,249,tbd,9.41241144658761,14.2113393047321,4.73998392112853,tool,1.18729008051196,0,2,1
3,3,tool,0,0,animals,t_340.png,340,tbd,16.7776353445615,21.3266080249582,4.49393881860238,tool,0.672306619041137,0,2,1
4,3,tool,0,0,animals,t_343.png,343,tbd,23.8762260174922,31.8745117066692,7.92753414551845,tool,0.896610318584862,0,2,1
5,3,animal,0,0,animals,a_145.png,145,tbd,34.424151829689,41.0061111217829,6.52902222868854,animal,1.45829135028862,0,1,1
6,3,animal,0,0,animals,a_142.png,142,tbd,43.5557137191963,50.1543632463895,6.52664517000628,animal,0.529346567134326,0,1,1
7,3,animal,0,0,animals,a_016.png,16,tbd,52.7205839142748,59.8523555623001,7.07197916756432,animal,0.648833871130591,0,1,1
8,3,tool,0,0,animals,t_186.png,186,tbd,62.4186657143237,70.3670282347744,7.88652724589724,tool,1.12027800720944,0,2,1
9,3,animal,0,0,animals,a_075.png,75,tbd,72.9332703916821,78.0154485831467,5.03060077617433,animal,0.958052886285714,0,1,1
10,3,tool,0,0,animals,t_308.png,308,tbd,80.5817892046798,88.0135726235576,7.36597911529265,tool,0.973127595919323,0,2,1
11,3,tool,0,0,animals,t_313.png,313,tbd,90.5631803526776,96.4952468172619,5.86350334141882,tool,0.621755778419811,0,2,1
12,3,animal,0,0,animals,a_031.png,31,tbd,99.0448574329675,106.909669992564,7.78991379509445,animal,0.63969109389609,0,1,1
13,3,tool,0,0,animals,t_306.png,306,tbd,109.492773976019,113.941828795798,4.37541069395033,tool,0.822681987361193,0,2,1
14,3,animal,0,0,animals,a_030.png,30,tbd,116.507990769786,123.456466829251,6.8920757984106,animal,0.596304757514645,0,1,1
15,3,tool,0,0,animals,t_323.png,323,tbd,126.022918744677,131.654904801829,5.58448538766221,tool,0.820179318071951,0,2,1
16,3,tool,0,0,animals,t_319.png,319,tbd,134.221300589211,139.886754676311,5.60697574517066,tool,0.94948357729254,0,2,1
17,3,tool,0,0,animals,t_334.png,334,tbd,142.453044301507,150.151367933242,7.63411544936016,tool,1.22019009465657,0,2,1
18,3,animal,0,0,animals,a_021.png,21,tbd,152.700944551389,159.316297784413,6.5513145498579,animal,0.634489467529875,0,1,1
19,3,animal,0,0,animals,a_143.png,143,tbd,161.882554694977,169.79757138425,7.84299405801376,animal,1.32145182100749,0,1,1
20,3,tool,0,0,animals,t_325.png,325,tbd,172.34715794508,178.162591617608,5.76858351625561,tool,0.707722452473718,0,2,1
21,3,tool,0,0,animals,t_355.png,355,tbd,180.712208647947,185.244535354216,4.4649237603004,tool,0.671976265412013,0,2,1
22,3,animal,0,0,animals,a_136.png,136,tbd,187.794170345529,192.126515076918,4.27785769028983,animal,0.675200901710014,0,1,1
23,3,tool,0,0,animals,t_205.png,205,tbd,194.692796042358,202.657766369867,7.90785945173357,tool,0.871427750094881,0,2,1
24,3,animal,0,0,animals,a_044.png,44,tbd,205.207419963617,210.87285544828,5.61019136730946,animal,0.692311936772512,0,1,1
25,3,animal,0,0,animals,a_168.png,168,tbd,213.42245740423,218.454708578188,4.96236156098764,animal,0.601819097267253,0,1,1
26,3,tool,0,0,animals,t_240.png,240,tbd,221.021005580213,226.703097623149,5.61809826560794,tool,0.690503972299211,0,2,1
27,3,tool,0,0,animals,t_289.png,289,tbd,229.252662053492,235.551379672021,6.24547139620932,tool,0.594539450354659,0,2,1
28,3,tool,0,0,animals,t_292.png,292,tbd,238.117641393561,243.482960228112,5.32730404808762,tool,0.686182754391211,0,2,1
29,3,animal,0,0,animals,a_108.png,108,tbd,246.049419199634,252.031332819538,5.92841354537863,animal,0.883985357513666,0,1,1
30,3,animal,0,0,animals,a_106.png,106,tbd,254.597745284967,259.530040431238,4.87153377750311,animal,1.27457977274116,0,1,1
31,3,animal,0,0,animals,a_020.png,20,tbd,262.09627777717,269.094767451695,6.94071835236829,animal,0.865041020175795,0,1,1
32,3,tool,0,0,animals,t_255.png,255,tbd,271.6610683025,279.492764354069,7.77904623270421,tool,0.610368841628315,0,2,1
33,3,tool,0,0,animals,t_190.png,190,tbd,282.042374969774,287.474519532522,5.38032159048956,tool,0.628779802184908,0,2,1
34,3,animal,0,0,animals,a_093.png,93,tbd,290.040798252841,294.673130700206,4.57768157365977,animal,0.743382683445816,0,1,1
35,3,animal,0,0,animals,a_047.png,47,tbd,297.222723354938,301.788453624086,4.50554715377147,animal,0.750248907224432,0,1,1
36,3,animal,0,0,animals,a_135.png,135,tbd,304.354662424899,309.320260103572,4.90784645694891,animal,0.616729271549957,0,1,1
37,3,tool,0,0,animals,t_201.png,201,tbd,311.886535937306,318.268494331351,6.32350141611457,tool,0.955691338935139,0,2,1
38,3,animal,0,0,animals,a_171.png,171,tbd,320.818128681201,326.80018310231,5.92380260303041,animal,0.754239771503308,0,1,1
39,3,animal,0,0,animals,a_037.png,37,tbd,329.349780568017,334.332042502523,4.91120323873978,animal,1.17460674627546,0,1,1
40,3,tool,0,0,animals,t_352.png,352,tbd,336.881627780426,344.663328177909,7.72525496549245,tool,0.762673410996285,0,2,1
41,3,animal,0,0,animals,a_079.png,79,tbd,347.229629670177,352.695038277524,5.41198183413795,animal,0.927184065863457,0,1,1
42,3,animal,0,0,animals,a_130.png,130,tbd,355.261379861253,360.160237767818,4.85208084837883,animal,0.671179247190594,0,1,1
43,3,animal,0,0,animals,a_116.png,116,tbd,362.709927604248,367.69217350217,4.92974299958735,animal,0.641414705938132,0,1,1
44,3,tool,0,0,animals,t_299.png,299,tbd,370.2417793069,374.474178274016,4.16449456218494,tool,0.804589513362316,0,2,1
45,3,animal,0,0,animals,a_089.png,89,tbd,377.023784720209,382.239333407118,5.1572657858017,animal,0.657653671565186,0,1,1
46,3,tool,0,0,animals,t_218.png,218,tbd,384.805601543292,389.504594221308,4.65015140735512,tool,0.708677591413107,0,2,1
47,3,tool,0,0,animals,t_296.png,296,tbd,392.070848245288,396.26991549342,4.14104496627639,tool,0.90973113083146,0,2,1
48,3,animal,0,0,animals,a_091.png,91,tbd,398.836210891786,405.83464507973,6.93810095973292,animal,0.860080584031948,0,1,1
49,3,animal,0,0,animals,a_122.png,122,tbd,408.400986663458,413.983106642123,5.51577062042315,animal,1.03077751151886,0,1,1
50,3,animal,0,0,animals,a_084.png,84,tbd,416.549394022198,421.514936855753,4.90561442279684,animal,0.684153805791539,0,1,1
51,3,tool,0,0,animals,t_322.png,322,tbd,424.081237065095,428.980134742388,4.83344797131773,tool,0.856237577057072,0,2,1
52,3,tool,0,0,animals,t_348.png,348,tbd,431.529789298334,439.294819025349,7.71227366177266,tool,1.13179804764741,0,2,1
53,3,tool,0,0,animals,t_339.png,339,tbd,441.84444984715,447.609866055839,5.71802822600743,tool,0.899038898856361,0,2,1
54,3,animal,0,0,animals,a_173.png,173,tbd,450.176136437134,456.008227950862,5.78128634126496,animal,0.694844113376348,0,1,1
55,3,tool,0,0,animals,t_309.png,309,tbd,458.574455674845,465.373059593993,6.7268770539338,tool,0.85826780858406,0,2,1
56,3,tool,0,0,animals,t_251.png,251,tbd,467.922674058479,473.171538427787,5.20185668640712,tool,0.652000134263744,0,2,1
57,3,tool,0,0,animals,t_189.png,189,tbd,475.737796621279,482.519662195577,6.72701737457993,tool,0.747223766029947,0,2,1
58,3,animal,0,0,animals,a_169.png,169,tbd,485.069313864937,490.201439600735,5.08318204279976,animal,0.632659372570743,0,1,1
59,3,animal,0,0,animals,a_017.png,17,tbd,492.767814861289,498.966481194823,6.13787699285935,animal,0.796809525030767,0,1,1
60,3,tool,0,0,animals,t_206.png,206,tbd,501.516092451992,507.214864466613,5.63511936606851,tool,0.657858298376595,0,2,1
