trial,phase,object,toShock,seenBefore,shockedCategory,filename,num,name,onsetFixationCross,onsetStimulus,interTrialTime,response,reactionTime,wasShocked,buttonPressed,isResponseCorrect
1,2,animal,0,0,animals,a_115.png,115,tbd,0.0281156026262579,8.70943083343604,8.57234366476757,0,1.82112992420912,0,2,1
2,2,animal,1,0,animals,a_069.png,69,tbd,13.3087445959361,20.2573839078257,6.88863862244162,0,1.02133897711724,1,2,0
3,2,tool,0,0,animals,t_185.png,185,tbd,25.023235670134,32.7549234147521,7.67342218588581,1,1.37815617705905,0,1,0
4,2,animal,0,0,animals,a_013.png,13,tbd,37.3206796631664,47.2854238748416,9.91221932691496,1,1.18103031777878,0,1,0
5,2,tool,0,0,animals,t_241.png,241,tbd,51.8513196415363,60.3995260939521,8.48043134902572,0,1.19531282016578,0,2,1
6,2,animal,0,0,animals,a_024.png,24,tbd,64.9653939569905,73.1803383854162,8.16314036730069,0,1.50180112580779,0,2,1
7,2,animal,1,0,animals,a_129.png,129,tbd,77.746202078943,86.8941767706478,9.0910533946707,0,1.46732856424251,1,2,0
8,2,tool,0,0,animals,t_311.png,311,tbd,91.6601805597718,100.041767867265,8.32889119946386,0,1.90612702639851,0,2,1
9,2,tool,0,0,animals,t_256.png,256,tbd,104.590951268374,112.106043457884,7.464984411864,0,1.40926201819252,0,2,1
10,2,tool,0,0,animals,t_260.png,260,tbd,116.671978674575,125.420149140896,8.69199414009048,0,0.8445106221277,0,2,1
11,2,animal,0,0,animals,a_132.png,132,tbd,129.9860237393,136.334568948515,6.28747642243095,0,1.17340267699456,0,2,1
12,2,animal,0,0,animals,a_151.png,151,tbd,140.883922337414,149.515422165342,8.57954222535707,0,1.61285254518975,0,2,1
13,2,animal,1,0,animals,a_068.png,68,tbd,154.064644695716,160.329952336731,6.19838912249179,0,0.890701757039778,1,2,0
14,2,tool,0,0,animals,t_321.png,321,tbd,165.079162935887,173.927311560381,8.79690227445032,0,0.734580480694603,0,2,1
15,2,animal,0,0,animals,a_118.png,118,tbd,178.493164028299,186.158220728849,7.60824176247286,0,1.00414455181885,0,2,1
16,2,animal,1,0,animals,a_023.png,23,tbd,190.707399960446,198.872477348189,8.09634177837838,0,1.01517964595837,1,2,0
17,2,tool,0,0,animals,t_344.png,344,tbd,203.638274586112,210.420222267719,6.72341744266935,0,1.03277434439201,0,2,1
18,2,tool,0,0,animals,t_197.png,197,tbd,214.986064472224,224.517390816386,9.47840524443898,0,1.14107452743337,0,2,1
19,2,animal,1,0,animals,a_009.png,9,tbd,229.083296846494,236.798228285287,7.65793103001337,0,1.01456576552528,1,2,0
20,2,animal,0,0,animals,a_096.png,96,tbd,241.564198718316,249.579166624301,7.95542543246365,1,0.968191813556132,0,1,0
21,2,tool,0,0,animals,t_182.png,182,tbd,254.161721835854,263.276490214661,9.04672898722988,0,0.8340393742792,0,2,1
22,2,animal,1,0,animals,a_022.png,22,tbd,267.842381170381,274.890891516062,6.9907547633609,1,0.732900488161249,1,1,1
23,2,animal,1,0,animals,a_014.png,14,tbd,279.640062023758,287.771715963257,8.07199873132396,0,1.31072266233059,1,2,0
24,2,tool,0,0,animals,t_207.png,207,tbd,292.537546878006,299.13611044911,6.54008993666101,0,0.69241677347236,0,2,1
25,2,animal,1,0,animals,a_083.png,83,tbd,303.685372108749,310.117319421514,6.37362837742008,1,0.985553660790629,1,1,1
26,2,tool,0,0,animals,t_342.png,342,tbd,314.883172466749,324.381194674852,9.43854901117416,0,0.719057388173951,0,2,1
27,2,animal,1,0,animals,a_081.png,81,tbd,328.947093328132,338.42842818772,9.41539188262711,1,0.733223144230124,1,1,1
28,2,animal,1,0,animals,a_034.png,34,tbd,343.194305608563,349.792910874785,6.53909228381058,1,0.882055793175368,1,1,1
29,2,tool,0,0,animals,t_338.png,338,tbd,354.558745959046,362.390434313054,7.77960941969899,0,0.796812689788567,0,2,1
30,2,animal,1,0,animals,a_152.png,152,tbd,366.939657805623,376.571004965272,9.58508817495723,1,0.782714287384806,1,1,1
31,2,tool,0,0,animals,t_324.png,324,tbd,381.33681663612,391.368121972358,9.97240797526121,0,0.707004612417677,0,2,1
32,2,tool,0,0,animals,t_315.png,315,tbd,395.917327824684,405.348731176523,9.38052291067992,0,0.610741168548429,0,2,1
33,2,tool,0,0,animals,t_263.png,263,tbd,409.914546439566,418.629274855206,8.66675884153837,0,1.02865230085672,0,2,1
34,2,animal,1,0,animals,a_111.png,111,tbd,423.195308536523,433.093261659022,9.83830901355436,1,1.60612263237454,1,1,1
35,2,tool,0,0,animals,t_266.png,266,tbd,437.842440505741,446.590595897674,8.68310048306471,0,0.904114114382537,0,2,1
36,2,tool,0,0,animals,t_230.png,230,tbd,451.13979212805,458.471654799726,7.26844099560133,0,0.855372841892404,0,2,1
37,2,animal,0,0,animals,a_147.png,147,tbd,463.020855841078,473.035442397096,9.95406881943683,1,0.896003130957979,0,1,0
38,2,animal,1,0,animals,a_109.png,109,tbd,477.584670379909,484.233253980705,6.59684936159342,1,0.783494948291263,1,1,1
39,2,animal,1,0,animals,a_157.png,157,tbd,488.999107667404,498.213843620239,9.15915467809595,1,0.867320417657993,1,1,1
40,2,tool,0,0,animals,t_213.png,213,tbd,502.979700514254,510.611418118991,7.57643569183066,0,0.706072886890979,0,2,1
41,2,animal,1,0,animals,a_102.png,102,tbd,515.160621405464,523.308941845919,8.08042241371486,1,1.34385135816183,1,1,1
42,2,tool,0,0,animals,t_208.png,208,tbd,528.074796815544,534.606740568188,6.48076321131054,0,0.790466372060564,0,2,1
43,2,animal,0,0,animals,a_140.png,140,tbd,539.155924931492,545.371390825785,6.15905718894836,1,0.63508699193153,0,1,0
44,2,tool,0,0,animals,t_252.png,252,tbd,549.937194907062,559.785145319378,9.79388350690537,0,1.34275541801571,0,2,1
45,2,tool,0,0,animals,t_274.png,274,tbd,564.334366566826,572.899259726293,8.51385757376833,0,0.929917940134146,0,2,1
46,2,tool,0,0,animals,t_293.png,293,tbd,577.465120853966,583.880418985287,6.3566111400975,0,0.82415634832978,0,2,1
47,2,animal,1,0,animals,a_110.png,110,tbd,588.429583463228,597.89432238283,9.40413058583638,1,0.990626032290493,1,1,1
48,2,tool,0,0,animals,t_331.png,331,tbd,602.660195634161,610.45858754967,7.74549317996698,0,1.85491355412842,0,2,1
49,2,animal,1,0,animals,a_076.png,76,tbd,615.007774478827,622.922791809564,7.86491525182537,1,1.37087620941429,1,1,1
50,2,tool,0,0,animals,t_317.png,317,tbd,627.68864517553,637.703224996184,9.95825362163069,0,0.714834955623246,0,2,1
51,2,animal,1,0,animals,a_112.png,112,tbd,642.269090934832,649.01766199502,6.68922223273078,1,0.889731864443547,1,1,1
52,2,tool,0,0,animals,t_272.png,272,tbd,653.766866500274,663.381593985792,9.5565241081544,0,0.690362807801648,0,2,1
53,2,tool,0,0,animals,t_225.png,225,tbd,667.930754935684,675.245838208853,7.27255517499383,0,0.843290238090049,0,2,1
54,2,tool,0,0,animals,t_196.png,196,tbd,679.811769897496,686.926938549439,7.04449827325608,0,1.02745533023108,0,2,1
55,2,animal,1,0,animals,a_149.png,149,tbd,691.47614921274,701.390730989857,9.85675855470652,1,1.04515105914379,1,1,1
56,2,tool,0,0,animals,t_262.png,262,tbd,706.156619315577,714.838107741493,8.61842694131378,0,0.987146414307517,0,2,1
57,2,animal,1,0,animals,a_029.png,29,tbd,719.404046165501,727.868924282652,8.41832420288807,1,0.857607700230346,1,1,1
58,2,tool,0,0,animals,t_198.png,198,tbd,732.61809895986,741.399690950035,8.7217465916399,0,0.596315299101207,0,2,1
59,2,tool,0,0,animals,t_285.png,285,tbd,745.965478630154,753.247287916041,7.2169269235251,0,0.593029082320754,0,2,1
60,2,animal,0,0,animals,a_039.png,39,tbd,757.796467147639,764.828251336273,6.98194481541065,1,0.641389646307744,0,1,0
