trial,phase,object,toShock,seenBefore,shockedCategory,responseSide,filename,num,name,onsetFixationCross,onsetStimulus,interTrialTime,response,reactionTime,wasShocked,buttonPressed,isResponseCorrect
1,2,tool,0,0,animals,2,t_267.png,267,tbd,0.0196110259748821,8.2588451058964,8.16376373698904,1,0.869825066796693,0,1,0
2,2,tool,0,0,animals,2,t_341.png,341,tbd,12.8289934539207,22.3024784056706,9.41437155437441,0,1.06866844421529,0,2,1
3,2,tool,0,0,animals,2,t_319.png,319,tbd,26.8559413295698,33.3605978724481,6.44285389722787,1,1.02192180203565,0,1,0
4,2,animal,0,0,animals,2,a_178.png,178,tbd,37.9140527780546,46.4033122759629,8.43269070112388,0,1.07753635440167,0,2,1
5,2,animal,1,0,animals,2,a_041.png,41,tbd,50.9902974334636,59.0794412755276,8.03109937826088,0,0.840659010853415,1,2,0
6,2,tool,0,0,animals,2,t_315.png,315,tbd,63.8330529547784,73.2564880487898,9.38116660867376,1,0.965223176595828,0,1,0
7,2,tool,0,0,animals,2,t_333.png,333,tbd,77.826577382184,87.5834595623637,9.74289076772101,0,0.815110487519632,0,2,1
8,2,tool,0,0,animals,2,t_305.png,305,tbd,92.1201434084887,98.4414479140305,6.28362580670729,1,1.04543432067476,0,1,0
9,2,animal,1,0,animals,2,a_019.png,19,tbd,102.978360121111,111.301083864331,8.25781382457726,0,0.805562626175742,1,2,0
10,2,animal,1,0,animals,2,a_001.png,1,tbd,116.071330292103,124.694139574462,8.56401643276699,0,1.0988460878707,1,2,0
11,2,animal,1,0,animals,2,a_033.png,33,tbd,129.464455601008,135.568849272202,6.03801113402604,1,1.23049457493107,1,1,1
12,2,tool,0,0,animals,2,t_334.png,334,tbd,140.339115264605,146.910424982038,6.50649012969712,0,0.943152988314978,0,2,1
13,2,tool,0,0,animals,2,t_216.png,216,tbd,151.480590970303,158.335401512497,6.79956606273852,0,1.11257468664735,0,2,1
14,2,animal,1,0,animals,2,a_134.png,134,tbd,162.905647042218,169.993888666069,7.03515564737442,0,1.30534885851193,1,2,0
15,2,tool,0,0,animals,2,t_304.png,304,tbd,174.74767386116,183.654071207298,8.83593089939604,0,0.957613176053201,0,2,1
16,2,animal,1,0,animals,2,a_021.png,21,tbd,188.224202877274,194.578809594486,6.30386100467599,1,1.09111036050854,1,1,1
17,2,animal,1,0,animals,2,a_167.png,167,tbd,199.33234718472,205.403348518643,6.00915513476405,0,1.00994279456427,1,2,0
18,2,animal,1,0,animals,2,a_049.png,49,tbd,210.173612907387,217.128614573588,6.87701446940673,1,1.10493293366926,1,1,1
19,2,tool,0,0,animals,2,t_344.png,344,tbd,221.882215668695,228.853855611464,6.91833418438727,0,0.752042772403001,0,2,1
20,2,tool,0,0,animals,2,t_239.png,239,tbd,233.423988564366,240.829288527064,7.34270348722889,0,0.858008670287745,0,2,1
21,2,tool,0,0,animals,2,t_221.png,221,tbd,245.382757544865,252.8047602512,7.36983686589251,0,0.86287000034099,0,2,1
22,2,animal,0,0,animals,2,a_066.png,66,tbd,257.374869469959,266.864886856822,9.43992289498666,1,1.00313141590414,0,1,0
23,2,tool,0,0,animals,2,t_201.png,201,tbd,271.435178251175,278.84049841997,7.34366414902058,0,1.06687876144679,0,2,1
24,2,animal,1,0,animals,2,a_119.png,119,tbd,283.410632335068,291.016068223851,7.55481715968908,1,1.04160350150232,1,1,1
25,2,tool,0,0,animals,2,t_324.png,324,tbd,295.769673167737,305.32659293767,9.51290920303834,0,0.835445517417611,0,2,1
26,2,tool,0,0,animals,2,t_251.png,251,tbd,309.880038862791,316.45139765217,6.52768114770235,0,0.939206705739707,0,2,1
27,2,animal,1,0,animals,2,a_139.png,139,tbd,321.021486344102,328.093266735272,7.010755475384,1,1.22043386363111,1,1,1
28,2,animal,1,0,animals,2,a_116.png,116,tbd,332.846840888917,340.752557963164,7.85264419299145,1,0.976568097536074,1,1,1
29,2,tool,0,0,animals,2,t_281.png,281,tbd,345.522822351908,352.594518390648,7.01877064598035,0,1.06288950082671,0,2,1
30,2,tool,0,0,animals,2,t_313.png,313,tbd,357.164677322817,364.453233199567,7.22227514437478,0,1.12352799421024,0,2,1
31,2,animal,1,0,animals,2,a_090.png,90,tbd,369.006700934442,377.712917131326,8.64683276743164,1,1.46821223547704,1,1,1
32,2,tool,0,0,animals,2,t_295.png,295,tbd,382.483202688363,389.071105459196,6.53282330152468,0,0.786290501060648,0,2,1
33,2,tool,0,0,animals,2,t_240.png,240,tbd,393.624724900154,402.264334107847,8.58847951099674,0,0.931712168603553,0,2,1
34,2,tool,0,0,animals,2,t_222.png,222,tbd,406.834417026608,414.006136446687,7.13323437434533,0,0.748024645930855,0,2,1
35,2,animal,0,0,animals,2,a_100.png,100,tbd,418.576346695923,426.915684019374,8.2976597555945,1,0.904773594171274,0,1,0
36,2,tool,0,0,animals,2,t_331.png,331,tbd,431.469134755469,438.257357552371,6.73974881954457,0,0.816409130087777,0,2,1
37,2,animal,1,0,animals,2,a_124.png,124,tbd,442.827471902836,450.833212037691,7.94629089509196,0,1.1120034635278,1,2,0
38,2,animal,0,0,animals,2,a_111.png,111,tbd,455.603474181315,464.976892132217,9.29779902846474,1,0.99770559809258,0,1,0
39,2,animal,1,0,animals,2,a_097.png,97,tbd,469.547028613168,475.734780447674,6.12590256918813,1,1.10815051386999,1,1,1
40,2,tool,0,0,animals,2,t_203.png,203,tbd,480.488401748875,487.059764387035,6.52294008958798,0,1.06438763849837,0,2,1
41,2,animal,1,0,animals,2,a_153.png,153,tbd,491.629889321646,499.969262246312,8.28424828282288,0,1.25026158902438,1,2,0
42,2,tool,0,0,animals,2,t_327.png,327,tbd,504.739166453381,513.996178690257,9.19401758175184,0,0.84073342060401,0,2,1
43,2,animal,1,0,animals,2,a_083.png,83,tbd,518.549579392209,525.421167087788,6.82525519814816,1,0.90814929508997,1,1,1
44,2,animal,1,0,animals,2,a_133.png,133,tbd,530.191484076528,538.364032267264,8.12372409491113,1,0.950667090086426,1,1,1
45,2,animal,1,0,animals,2,a_095.png,95,tbd,543.134311088936,550.622995514943,7.42866083376753,1,1.11002198321512,1,1,1
46,2,tool,0,0,animals,2,t_248.png,248,tbd,555.393247395152,563.132011122067,7.69102706298944,0,0.872416899490418,0,2,1
47,2,animal,0,0,animals,2,a_017.png,17,tbd,567.685624789854,574.724003221803,6.98983274931814,1,1.05956768283068,0,1,0
48,2,animal,1,0,animals,2,a_003.png,3,tbd,579.277454920093,586.082344859415,6.75802835033292,1,1.19680074988173,1,1,1
49,2,animal,0,0,animals,2,a_156.png,156,tbd,590.852594494501,597.924314908849,7.01781442727169,1,1.4662605832109,0,1,0
50,2,tool,0,0,animals,2,t_348.png,348,tbd,602.494457804434,612.518340768162,9.97469156944441,0,0.899430845865936,0,2,1
51,2,animal,0,0,animals,2,a_044.png,44,tbd,617.088536263742,626.928995666969,9.79239825709252,1,0.755159963588085,0,1,0
52,2,animal,1,0,animals,2,a_046.png,46,tbd,631.482369748193,638.036901670777,6.53091159434627,1,0.905169697794918,1,1,1
53,2,animal,0,0,animals,2,a_144.png,144,tbd,642.773696746648,650.179240465422,7.34676957061203,1,1.05162957378161,0,1,0
54,2,tool,0,0,animals,2,t_347.png,347,tbd,654.749411264664,662.071350177466,7.26649181787345,0,1.01172766635864,0,2,1
55,2,tool,0,0,animals,2,t_322.png,322,tbd,666.624810535512,675.497653895613,8.82648260119212,0,1.27888881574472,0,2,1
56,2,tool,0,0,animals,2,t_318.png,318,tbd,680.067993078985,688.474021744058,8.35426465632447,0,0.873964109110602,0,2,1
57,2,animal,0,0,animals,2,a_084.png,84,tbd,693.044139943304,700.799717066282,7.70971729000556,1,1.12447511485698,0,1,0
58,2,tool,0,0,animals,2,t_229.png,229,tbd,705.35320468652,714.042772664157,8.62022209326642,0,0.8468385481101,0,2,1
59,2,animal,0,0,animals,2,a_050.png,50,tbd,718.61290016462,728.036265339126,9.37062318837384,1,1.11891394827944,0,1,0
60,2,tool,0,0,animals,2,t_275.png,275,tbd,732.606499322508,740.495499861658,7.82571661735491,0,0.958877500332164,0,2,1
