trial,phase,object,toShock,seenBefore,shockedCategory,responseSide,filename,num,name,onsetFixationCross,onsetStimulus,interTrialTime,response,reactionTime,wasShocked,buttonPressed,isResponseCorrect
1,1,tool,0,0,animals,2,t_250.png,250,tbd,0.0183051343698253,5.65622060055682,5.45514229505287,tool,0.916258969505975,0,1,1
2,1,animal,0,0,animals,2,a_136.png,136,tbd,8.30834762322399,14.2631540360919,5.93878190493792,animal,0.89254230731899,0,2,1
3,1,tool,0,0,animals,2,t_324.png,324,tbd,16.7985679980111,23.7208285236102,6.89173340116889,tool,0.866352518716667,0,1,1
4,1,animal,0,0,animals,2,a_121.png,121,tbd,26.2729029090871,32.9950025180003,6.69689031273011,animal,0.68136752020871,0,2,1
5,1,tool,0,0,animals,2,t_190.png,190,tbd,35.5304125800377,39.6503959441134,4.07117778034895,tool,0.9822564821892,0,1,1
6,1,tool,0,0,animals,2,t_237.png,237,tbd,42.1857955794445,46.4892683920484,4.2747896028329,tool,1.09793317723756,0,1,1
7,1,tool,0,0,animals,2,t_294.png,294,tbd,49.0413365714344,55.6633703930742,6.5891720836274,tool,0.779651739798737,0,1,1
8,1,animal,0,0,animals,2,a_175.png,175,tbd,58.1987536552688,62.3521235200944,4.1141564495441,animal,0.868242045803299,0,2,1
9,1,tool,0,0,animals,2,t_283.png,283,tbd,64.8875108789675,71.9932601112647,7.06767132528298,tool,0.956462630457054,0,1,1
10,1,animal,0,0,animals,2,a_044.png,44,tbd,74.528650854627,78.7987739169276,4.24967625876115,animal,0.830201938557366,0,2,1
11,1,tool,0,0,animals,2,t_201.png,201,tbd,81.3508381314299,89.2405669784787,7.84543271186332,tool,1.10895036535851,0,1,1
12,1,tool,0,0,animals,2,t_326.png,326,tbd,91.7926386859357,97.7808100257463,5.96189917128089,tool,0.836672977771173,0,1,1
13,1,animal,0,0,animals,2,a_034.png,34,tbd,100.299519322844,106.220985449914,5.87476066301886,animal,0.789053836761354,0,2,1
14,1,tool,0,0,animals,2,t_239.png,239,tbd,108.756359422617,115.928837076563,7.1249500378189,tool,1.58643321698185,0,1,1
15,1,tool,0,0,animals,2,t_207.png,207,tbd,118.46423438604,125.953633991409,7.44931402264791,tool,0.615080485324711,0,1,1
16,1,animal,0,0,animals,2,a_010.png,10,tbd,128.505695651829,134.477197184295,5.93713727956454,animal,0.716676416464338,0,2,1
17,1,animal,0,0,animals,2,a_064.png,64,tbd,137.02926525546,143.484488849344,6.41035065252677,animal,0.836565620545457,0,2,1
18,1,animal,0,0,animals,2,a_032.png,32,tbd,146.003189366624,152.324977358497,6.28145982649782,animal,0.731903165941276,0,2,1
19,1,tool,0,0,animals,2,t_217.png,217,tbd,154.893726574837,160.531629861,5.60594524065212,tool,1.18702763738554,0,1,1
20,1,tool,0,0,animals,2,t_245.png,245,tbd,163.050339888142,168.30458370068,5.23038385395588,tool,1.34252996831799,0,1,1
21,1,animal,0,0,animals,2,a_066.png,66,tbd,170.839979410418,177.562082787418,6.69316665113642,animal,1.35140826779946,0,2,1
22,1,animal,0,0,animals,2,a_167.png,167,tbd,180.097459615293,187.119824734809,6.98744789674274,animal,1.11287849571715,0,2,1
23,1,animal,0,0,animals,2,a_109.png,109,tbd,189.655217658306,195.910285652254,6.20414973388246,animal,0.682700029229522,0,2,1
24,1,tool,0,0,animals,2,t_228.png,228,tbd,198.445667025407,205.701548716915,7.21172984280143,tool,0.864129373538617,0,1,1
25,1,tool,0,0,animals,2,t_255.png,255,tbd,208.25359001967,215.876446102246,7.59706287206971,tool,1.12129015904441,0,1,1
26,1,animal,0,0,animals,2,a_157.png,157,tbd,218.395151129442,223.499278712325,5.06860362774559,animal,1.0658602247189,0,2,1
27,1,tool,0,0,animals,2,t_295.png,295,tbd,226.051348155001,231.522440715523,5.41435757774094,tool,0.909968979488326,0,1,1
28,1,animal,0,0,animals,2,a_123.png,123,tbd,234.057820742877,241.113539725092,7.01225145444768,animal,1.01021089673088,0,2,1
29,1,tool,0,0,animals,2,t_256.png,256,tbd,243.648937339586,251.021562699062,7.34743740305522,tool,0.675503966407177,0,1,1
30,1,animal,0,0,animals,2,a_095.png,95,tbd,253.556958745249,259.895427766219,6.30433076586737,animal,0.781768482094435,0,2,1
31,1,tool,0,0,animals,2,t_260.png,260,tbd,262.447487502236,269.886845240386,7.39891849635981,tool,0.748776538845732,0,1,1
32,1,animal,0,0,animals,2,a_162.png,162,tbd,272.422238921429,277.576399884942,5.10836528291519,animal,1.10974836268099,0,2,1
33,1,animal,0,0,animals,2,a_113.png,113,tbd,280.128484990356,284.815606633436,4.64360438720283,animal,0.815405239805727,0,2,1
34,1,tool,0,0,animals,2,t_240.png,240,tbd,287.367667138787,292.021438173654,4.6249036451999,tool,0.94276922432573,0,1,1
35,1,animal,0,0,animals,2,a_007.png,7,tbd,294.556829438476,300.428248934469,5.81024365261474,animal,0.837262470662267,0,2,1
36,1,tool,0,0,animals,2,t_305.png,305,tbd,302.963635443291,308.718296234329,5.72721783091943,tool,0.573668647892532,0,1,1
37,1,tool,0,0,animals,2,t_288.png,288,tbd,311.253686507309,317.041689695349,5.75024753235347,tool,0.598374246128628,0,1,1
38,1,animal,0,0,animals,2,a_073.png,73,tbd,319.577092878396,325.465185774807,5.85307720624534,animal,0.67963577054627,0,2,1
39,1,tool,0,0,animals,2,t_352.png,352,tbd,328.033936614461,332.13724493516,4.06702342526679,tool,1.02170621420544,0,1,1
40,1,tool,0,0,animals,2,t_350.png,350,tbd,334.689322736558,340.610782637892,5.88137431040922,tool,1.19239108657428,0,1,1
41,1,animal,0,0,animals,2,a_152.png,152,tbd,343.146163894966,348.683991516112,5.50774121543371,animal,0.721546785750888,0,2,1
42,1,animal,0,0,animals,2,a_014.png,14,tbd,351.21937714345,357.89145022322,6.63062533126746,animal,1.04117997623473,0,2,1
43,1,tool,0,0,animals,2,t_290.png,290,tbd,360.426838540365,364.480118936836,4.01578798268574,tool,0.835741570930281,0,1,1
44,1,animal,0,0,animals,2,a_051.png,51,tbd,366.998828161074,373.587493002311,6.53834496526858,animal,0.648702377134214,0,2,1
45,1,tool,0,0,animals,2,t_293.png,293,tbd,376.139551347173,382.711543405886,6.53287589300925,tool,1.01524340977699,0,1,1
46,1,animal,0,0,animals,2,a_024.png,24,tbd,385.263624650707,392.886450617883,7.58917146248597,animal,1.19122115026789,0,2,1
47,1,animal,0,0,animals,2,a_110.png,110,tbd,395.438530262965,401.443379424535,5.97136557140419,animal,0.693726870794308,0,2,1
48,1,tool,0,0,animals,2,t_340.png,340,tbd,403.978777383338,408.932777963411,4.89511241537382,tool,1.07768725766573,0,1,1
49,1,tool,0,0,animals,2,t_212.png,212,tbd,411.484860367231,418.824120213303,7.31894932853507,tool,1.03563158368797,0,1,1
50,1,animal,0,0,animals,2,a_139.png,139,tbd,421.35951655665,429.315953863067,7.90285701274919,animal,0.6794314199376,0,2,1
51,1,tool,0,0,animals,2,t_337.png,337,tbd,431.868019765885,437.706089989814,5.81096497046533,tool,0.807593633937813,0,1,1
52,1,tool,0,0,animals,2,t_296.png,296,tbd,440.258152047757,447.597432552582,7.30245607338657,tool,0.876287006178245,0,1,1
53,1,animal,0,0,animals,2,a_004.png,4,tbd,450.149493988701,455.887472607361,5.70902442588012,animal,1.28040584481641,0,2,1
54,1,animal,0,0,animals,2,a_173.png,173,tbd,458.422857620735,465.628692970468,7.17872477821191,animal,0.824705860970653,0,2,1
55,1,animal,0,0,animals,2,a_106.png,106,tbd,468.164086968316,472.334132189394,4.14352714703985,animal,1.18129526368216,0,2,1
56,1,tool,0,0,animals,2,t_311.png,311,tbd,474.869515687675,479.35645149541,4.4693209111825,tool,0.860206388497545,0,1,1
57,1,animal,0,0,animals,2,a_116.png,116,tbd,481.891870091184,489.731539214216,7.79577644758494,animal,0.619601363059473,0,2,1
58,1,animal,0,0,animals,2,a_125.png,125,tbd,492.26693162804,496.95405305075,4.63890142054951,animal,1.02270626199493,0,2,1
59,1,animal,0,0,animals,2,a_140.png,140,tbd,499.506116855942,504.243285694778,4.6950340161137,animal,0.619672156639353,0,2,1
60,1,tool,0,0,animals,2,t_266.png,266,tbd,506.778686764484,514.468246676504,7.64133610074917,tool,0.956037550035717,0,1,1
