trial,phase,object,toShock,seenBefore,shockedCategory,responseSide,filename,num,name,onsetFixationCross,onsetStimulus,interTrialTime,response,reactionTime,wasShocked,buttonPressed,isResponseCorrect
1,1,tool,0,0,animals,2,t_346.png,346,tbd,0.0197044112082949,4.32283044959604,4.19990384093916,tool,1.32980960695659,0,1,1
2,1,tool,0,0,animals,2,t_289.png,289,tbd,6.9082156492168,13.4463526504214,6.48368947484357,tool,0.935636706217338,0,1,1
3,1,tool,0,0,animals,2,t_259.png,259,tbd,16.015060128615,22.6366107545027,6.57114863767542,tool,1.36389761482769,0,1,1
4,1,animal,0,0,animals,2,a_028.png,28,tbd,25.1886058715909,32.6774785168946,7.43025806924782,animal,0.766462939485791,0,2,1
5,1,animal,0,0,animals,2,a_128.png,128,tbd,35.2462462937847,42.1846280820382,6.87879490195571,animal,0.717773666367066,0,2,1
6,1,animal,0,0,animals,2,a_151.png,151,tbd,44.7533050901457,51.7918689932931,6.99168716034835,animal,0.937922604147388,0,2,1
7,1,tool,0,0,animals,2,t_221.png,221,tbd,54.3438214522612,61.6993092109842,7.29577476035224,tool,1.03299697040165,0,1,1
8,1,tool,0,0,animals,2,t_205.png,205,tbd,64.2846376400239,69.3050487488399,4.96538902702934,tool,0.970535218378245,0,1,1
9,1,tool,0,0,animals,2,t_183.png,183,tbd,71.8570313571563,75.9099832349475,4.00486790635179,tool,0.82109291717461,0,1,1
10,1,animal,0,0,animals,2,a_073.png,73,tbd,78.4619796349871,83.5823826612113,5.07010986529166,animal,0.693890250689947,0,2,1
11,1,animal,0,0,animals,2,a_112.png,112,tbd,86.1511376085909,90.4876239009018,4.28494586108748,animal,0.646056064407276,0,2,1
12,1,animal,0,0,animals,2,a_139.png,139,tbd,93.0563108518782,99.044012804402,5.92850463253382,animal,0.624049926769658,0,2,1
13,1,tool,0,0,animals,2,t_337.png,337,tbd,101.612742734237,109.184945933147,7.52043909227067,tool,0.918608739168121,0,1,1
14,1,animal,0,0,animals,2,a_159.png,159,tbd,111.770379884905,116.15671972836,4.34270018492914,animal,0.927097705147389,0,2,1
15,1,animal,0,0,animals,2,a_154.png,154,tbd,118.708870723994,122.778553886417,4.01815247735647,animal,0.652566078480959,0,2,1
16,1,animal,0,0,animals,2,a_099.png,99,tbd,125.330599038594,132.118796017758,6.73150838255295,animal,0.99284605687717,0,2,1
17,1,tool,0,0,animals,2,t_345.png,345,tbd,134.687619282277,139.65788047827,4.90254276331829,tool,0.731042907745177,0,1,1
18,1,animal,0,0,animals,2,a_059.png,59,tbd,142.226613936221,149.098213634984,6.83053450547921,animal,0.627211438753875,0,2,1
19,1,tool,0,0,animals,2,t_332.png,332,tbd,151.667043955735,156.48721816765,4.76874990056176,tool,0.983572887102127,0,1,1
20,1,tool,0,0,animals,2,t_200.png,200,tbd,159.055912174857,165.210257273279,6.11773169579123,tool,0.904128071315427,0,1,1
21,1,animal,0,0,animals,2,a_086.png,86,tbd,167.779163288138,174.100430574299,6.27237290579361,animal,0.630042590856647,0,2,1
22,1,animal,0,0,animals,2,a_030.png,30,tbd,176.669173333645,184.057933784884,7.32198882059541,animal,0.653146934543656,0,2,1
23,1,tool,0,0,animals,2,t_207.png,207,tbd,186.626654092587,194.165542903073,7.4884353749843,tool,0.569006518123388,0,1,1
24,1,tool,0,0,animals,2,t_231.png,231,tbd,196.734305964937,201.721226504265,4.92747621684035,tool,0.657685052941815,0,1,1
25,1,animal,0,0,animals,2,a_027.png,27,tbd,204.289923077376,209.426995485846,5.08190828865834,animal,0.65119749050973,0,2,1
26,1,animal,0,0,animals,2,a_131.png,131,tbd,211.995727981584,216.699148521372,4.64866040960306,animal,0.696477321366729,0,2,1
27,1,tool,0,0,animals,2,t_230.png,230,tbd,219.267850547024,225.122051826639,5.81281243229134,tool,0.976032663381375,0,1,1
28,1,tool,0,0,animals,2,t_206.png,206,tbd,227.690861299436,233.778653635856,6.03644160094827,tool,1.27281515058803,0,1,1
29,1,animal,0,0,animals,2,a_114.png,114,tbd,236.347374905773,243.852895764631,7.44606654725425,animal,0.86400506197424,0,2,1
30,1,animal,0,0,animals,2,a_067.png,67,tbd,246.421631147008,252.592800544009,6.10872825597211,animal,0.661500228456134,0,2,1
31,1,animal,0,0,animals,2,a_083.png,83,tbd,255.161504814824,260.315282207432,5.10761753293512,animal,1.26044333342816,0,2,1
32,1,tool,0,0,animals,2,t_349.png,349,tbd,262.884018231284,269.305351846012,6.36354992621553,tool,0.986747228595959,0,1,1
33,1,tool,0,0,animals,2,t_222.png,222,tbd,271.87407568183,276.243902342321,4.3196942163141,tool,1.48755452550813,0,1,1
34,1,tool,0,0,animals,2,t_235.png,235,tbd,278.795937551628,284.116531609256,5.26993555014052,tool,0.805299148981248,0,1,1
35,1,animal,0,0,animals,2,a_064.png,64,tbd,286.685191618262,294.190761870734,7.43527882806423,animal,0.846429595589143,0,2,1
36,1,tool,0,0,animals,2,t_299.png,299,tbd,296.759432464086,304.748665618618,7.93255468877708,tool,1.39812225698188,0,1,1
37,1,animal,0,0,animals,2,a_161.png,161,tbd,307.317392661815,311.703871384714,4.33226576539533,animal,0.742247560237956,0,2,1
38,1,tool,0,0,animals,2,t_279.png,279,tbd,314.272604842665,318.725825242098,4.40027077142537,tool,1.21755043289431,0,1,1
39,1,animal,0,0,animals,2,a_055.png,55,tbd,321.294547474228,327.565705901997,6.22802645027041,animal,1.07532216512209,0,2,1
40,1,animal,0,0,animals,2,a_074.png,74,tbd,330.134582088245,335.655235674799,5.46904104333808,animal,0.877003921430514,0,2,1
41,1,tool,0,0,animals,2,t_300.png,300,tbd,338.223952775124,343.327695720498,5.03820719646729,tool,1.11495604939682,0,1,1
42,1,tool,0,0,animals,2,t_220.png,220,tbd,345.896396783936,350.966710196034,5.0204884361094,tool,0.883174274229532,0,1,1
43,1,animal,0,0,animals,2,a_124.png,124,tbd,353.53545135169,358.722694520939,5.12325182276731,animal,1.20166653739307,0,2,1
44,1,tool,0,0,animals,2,t_189.png,189,tbd,361.291305777808,368.463256171224,7.11357759237162,tool,0.75549434997447,0,1,1
45,1,animal,0,0,animals,2,a_088.png,88,tbd,371.031901747032,378.454077619086,7.36419301113453,animal,0.79116519863328,0,2,1
46,1,tool,0,0,animals,2,t_340.png,340,tbd,381.022805945233,386.126386597305,5.05968791165746,tool,0.741140373532289,0,1,1
47,1,tool,0,0,animals,2,t_307.png,307,tbd,388.695235841583,394.165871980003,5.41302765415544,tool,1.07113012275295,0,1,1
48,1,tool,0,0,animals,2,t_294.png,294,tbd,396.734608645331,404.49027191175,7.71429166200346,tool,1.02419785101938,0,1,1
49,1,animal,0,0,animals,2,a_034.png,34,tbd,407.059033273885,411.295280359982,4.18081785850942,animal,0.596494384614743,0,2,1
50,1,animal,0,0,animals,2,a_060.png,60,tbd,413.864137943441,420.719189178089,6.79643208150397,animal,0.652033974557526,0,2,1
51,1,tool,0,0,animals,2,t_247.png,247,tbd,423.287898259971,431.193622851448,7.86787231558299,tool,0.804134550216986,0,1,1
52,1,tool,0,0,animals,2,t_314.png,314,tbd,433.745723811993,441.634941314524,7.84198891824797,tool,0.670257651931024,0,1,1
53,1,animal,0,0,animals,2,a_049.png,49,tbd,444.186935148661,450.441611825767,6.18025764726317,animal,0.696986332171946,0,2,1
54,1,tool,0,0,animals,2,t_302.png,302,tbd,453.026922934968,460.248846193971,7.16058207534228,tool,1.60926423731871,0,1,1
55,1,animal,0,0,animals,2,a_039.png,39,tbd,462.817614933074,467.938004488314,5.06607042192493,animal,0.669611686105782,0,2,1
56,1,animal,0,0,animals,2,a_100.png,100,tbd,470.506699778472,478.179075470143,7.61372411473635,animal,0.576905647383683,0,2,1
57,1,tool,0,0,animals,2,t_202.png,202,tbd,480.747769798088,487.98637783475,7.18898737866953,tool,0.653073806336579,0,1,1
58,1,tool,0,0,animals,2,t_226.png,226,tbd,490.521770283044,494.741509959458,4.15880273270224,tool,0.750194158686099,0,1,1
59,1,animal,0,0,animals,2,a_103.png,103,tbd,497.310219041339,502.030337829772,4.66797855505939,animal,0.660640330553179,0,2,1
60,1,animal,0,0,animals,2,a_003.png,3,tbd,504.59902317706,510.570066973159,5.9210415510948,animal,0.838381002537062,0,2,1
