trial,phase,object,toShock,seenBefore,shockedCategory,responseSide,filename,num,name,onsetFixationCross,onsetStimulus,interTrialTime,response,reactionTime,wasShocked,buttonPressed,isResponseCorrect
1,3,animal,0,0,tools,2,a_100.png,100,tbd,0.0197259048800333,5.42360882020876,5.32589307718732,animal,0.792171348704869,0,2,1
2,3,tool,0,0,tools,2,t_241.png,241,tbd,8.00905560147658,14.4971745130715,6.42541245804151,tool,0.580069079551322,0,1,1
3,3,animal,0,0,tools,2,a_075.png,75,tbd,17.0658659543769,22.0027739526777,4.87565268440251,animal,0.682834737006488,0,2,1
4,3,tool,0,0,tools,2,t_301.png,301,tbd,24.5715147875962,31.8101401440981,7.18925432384662,tool,0.801923059199908,0,1,1
5,3,tool,0,0,tools,2,t_313.png,313,tbd,34.3789130527912,40.600148008587,6.15788159333248,tool,0.688319031760329,0,1,1
6,3,animal,0,0,tools,2,a_073.png,73,tbd,43.1521848215816,50.4740342467558,7.27011896286278,animal,0.7349093970588,0,2,1
7,3,tool,0,0,tools,2,t_312.png,312,tbd,53.0429489215348,60.8319756492529,7.72709113093039,tool,0.648439783108188,0,1,1
8,3,tool,0,0,tools,2,t_251.png,251,tbd,63.400724502615,70.0555269730648,6.60802539082581,tool,0.921335005787114,0,1,1
9,3,tool,0,0,tools,2,t_268.png,268,tbd,72.6076144626277,80.5135199501929,7.85435243012495,tool,0.613831859347556,0,1,1
10,3,animal,0,0,tools,2,a_117.png,117,tbd,83.0654592589126,89.520218237325,6.38918630092051,animal,0.625553861827939,0,2,1
11,3,tool,0,0,tools,2,t_203.png,203,tbd,92.0889728639668,97.659474869859,5.51566559715577,tool,0.580682971602073,0,1,1
12,3,tool,0,0,tools,2,t_292.png,292,tbd,100.228413599969,104.614909642707,4.34671218259086,tool,0.692565278808615,0,1,1
13,3,animal,0,0,tools,2,a_089.png,89,tbd,107.166979170954,111.486535641965,4.27415180208742,animal,0.694276735433959,0,2,1
14,3,animal,0,0,tools,2,a_068.png,68,tbd,114.055467636583,120.593602392622,6.49021109150894,animal,0.901645556903532,0,2,1
15,3,animal,0,0,tools,2,a_007.png,7,tbd,123.162239629248,127.215224222291,4.00084583292748,animal,0.815292370756652,0,2,1
16,3,tool,0,0,tools,2,t_255.png,255,tbd,129.783943567782,137.823194170447,7.98060539079833,tool,0.511794276579167,0,1,1
17,3,animal,0,0,tools,2,a_149.png,149,tbd,140.37523130418,147.864052631445,7.4367181582482,animal,0.762469429540943,0,2,1
18,3,animal,0,0,tools,2,a_061.png,61,tbd,150.416143969858,157.521367119938,7.05035999052699,animal,0.665610478456074,0,2,1
19,3,animal,0,0,tools,2,a_126.png,126,tbd,160.090058240505,166.995128526978,6.85877638416483,animal,0.659245117105456,0,2,1
20,3,tool,0,0,tools,2,t_300.png,300,tbd,169.563834401481,174.100464897481,4.48979142862576,tool,0.628286547442258,0,1,1
21,3,animal,0,0,tools,2,a_053.png,53,tbd,176.669203807975,180.922305983473,4.20644289134666,tool,0.871781985912094,0,1,0
22,3,animal,0,0,tools,2,a_052.png,52,tbd,183.474302704253,190.195886943457,6.67285977763124,animal,0.793809035647428,0,2,1
23,3,animal,0,0,tools,2,a_102.png,102,tbd,192.764628740588,200.720572524242,7.88923167335473,animal,0.726436147226195,0,2,1
24,3,tool,0,0,tools,2,t_351.png,351,tbd,203.272518568454,207.992753143215,4.67397841451422,tool,0.70260052147205,0,1,1
25,3,tool,0,0,tools,2,t_346.png,346,tbd,210.544672566193,218.133606087522,7.53170248139914,tool,0.766229438162554,0,1,1
26,3,tool,0,0,tools,2,t_244.png,244,tbd,220.685661503307,225.155526908919,4.42981502905013,tool,0.686633234156034,0,1,1
27,3,animal,0,0,tools,2,a_065.png,65,tbd,227.707570778144,232.311025701019,4.53380699068394,animal,0.762469108802179,0,2,1
28,3,animal,0,0,tools,2,a_114.png,114,tbd,234.86293646408,239.91663052902,4.99470800530812,animal,0.669227758779016,0,2,1
29,3,animal,0,0,tools,2,a_041.png,41,tbd,242.468644569639,247.505633971177,4.99472176714725,animal,0.78257423381001,0,2,1
30,3,tool,0,0,tools,2,t_344.png,344,tbd,250.074312262237,256.595724072828,6.48339601155496,tool,0.770927604695316,0,1,1
31,3,tool,0,0,tools,2,t_263.png,263,tbd,259.147854220508,264.451630715048,5.25826302774027,tool,0.925393300512951,0,1,1
32,3,tool,0,0,tools,2,t_225.png,225,tbd,267.003776899619,272.941434141299,5.88655331504488,tool,0.607929643305397,0,1,1
33,3,animal,0,0,tools,2,a_010.png,10,tbd,275.493453955194,280.046732985487,4.50120010032823,animal,0.698001142165595,0,2,1
34,3,animal,0,0,tools,2,a_135.png,135,tbd,282.615463556798,289.337110339864,6.67388327459403,animal,0.756037996212399,0,2,1
35,3,animal,0,0,tools,2,a_160.png,160,tbd,291.889187245077,299.211163682401,7.26743443960082,animal,1.00350513021476,0,2,1
36,3,tool,0,0,tools,2,t_243.png,243,tbd,301.76325117196,306.399923941197,4.56407871127495,tool,0.742122789011773,0,1,1
37,3,tool,0,0,tools,2,t_342.png,342,tbd,308.951958509027,316.173972216078,7.16804086696027,tool,0.609461486790678,0,1,1
38,3,tool,0,0,tools,2,t_339.png,339,tbd,318.725915373649,323.429362855408,4.6525016207094,tool,0.890438017770066,0,1,1
39,3,animal,0,0,tools,2,a_136.png,136,tbd,325.981439760624,330.534759845348,4.49111951880467,animal,0.613538384310232,0,2,1
40,3,tool,0,0,tools,2,t_311.png,311,tbd,333.086782545884,337.423283912867,4.2810399985733,tool,0.601146681408864,0,1,1
41,3,tool,0,0,tools,2,t_201.png,201,tbd,339.991991391063,346.012992978071,5.97603482605251,tool,0.600849036778527,0,1,1
42,3,tool,0,0,tools,2,t_303.png,303,tbd,348.581769735618,356.337408305229,7.70132148376984,tool,0.613911723048659,0,1,1
43,3,animal,0,0,tools,2,a_071.png,71,tbd,358.906191798269,364.760520090033,5.80610888852191,animal,0.757209651212179,0,2,1
44,3,animal,0,0,tools,2,a_179.png,179,tbd,367.312504622776,373.750610255829,6.37869766602521,animal,0.575538658860751,0,2,1
45,3,tool,0,0,tools,2,t_304.png,304,tbd,376.30259222267,383.157642174367,6.80531460674568,tool,0.63812197048901,0,1,1
46,3,animal,0,0,tools,2,a_024.png,24,tbd,385.709666799328,391.113776901511,5.35229975075596,animal,0.781203937618557,0,2,1
47,3,animal,0,0,tools,2,a_097.png,97,tbd,393.682354055647,400.387389189262,6.64887591095896,animal,0.721019848871947,0,2,1
48,3,animal,0,0,tools,2,a_015.png,15,tbd,402.939292896092,408.910333484811,5.92988911482752,animal,0.66547769302997,0,2,1
49,3,tool,0,0,tools,2,t_310.png,310,tbd,411.479060207272,418.584296507597,7.04606436518331,tool,0.732971178844309,0,1,1
50,3,animal,0,0,tools,2,a_030.png,30,tbd,421.152993401447,426.039863103659,4.83443705917198,animal,0.830756099810969,0,2,1
51,3,animal,0,0,tools,2,a_025.png,25,tbd,428.59190248256,434.896505839013,6.24830618201237,animal,0.600513224355382,0,2,1
52,3,tool,0,0,tools,2,t_233.png,233,tbd,437.465233523686,444.803948301869,7.29067331891122,tool,0.570539640317293,0,1,1
53,3,tool,0,0,tools,2,t_320.png,320,tbd,447.356006283557,454.778163232084,7.36578438337654,tool,0.658757595727366,0,1,1
54,3,animal,0,0,tools,2,a_028.png,28,tbd,457.330141991548,464.452099633636,7.06927635405934,animal,0.643309262090042,0,2,1
55,3,tool,0,0,tools,2,t_308.png,308,tbd,467.004137088108,471.27386662921,4.22423143285526,tool,0.716883935609076,0,1,1
56,3,tool,0,0,tools,2,t_329.png,329,tbd,473.842621255852,481.047759667021,7.15534217053145,tool,0.518432585751725,0,1,1
57,3,tool,0,0,tools,2,t_226.png,226,tbd,483.616606024658,490.838554301205,7.18337886210245,tool,0.700302435507183,0,1,1
58,3,animal,0,0,tools,2,a_026.png,26,tbd,493.390609396254,498.327524450786,4.88706695621942,animal,1.10051418656803,0,2,1
59,3,animal,0,0,tools,2,a_121.png,121,tbd,500.89623160824,505.816522825287,4.8645459998573,animal,0.581851098479092,0,2,1
60,3,tool,0,0,tools,2,t_274.png,274,tbd,508.38522869979,514.990084925888,6.54241116529053,tool,0.646708440744987,0,1,1
