trial,phase,object,toShock,seenBefore,shockedCategory,responseSide,filename,num,name,onsetFixationCross,onsetStimulus,interTrialTime,response,reactionTime,wasShocked,buttonPressed,isResponseCorrect
1,2,animal,0,0,animals,1,a_161.png,161,tbd,0.0253689393102832,9.39957867287376,9.26796287838276,1,0.670098486169081,0,1,0
2,2,tool,0,0,animals,1,t_338.png,338,tbd,13.9866760947843,23.1941338536071,9.14999852052482,0,1.82806861854442,0,2,1
3,2,tool,0,0,animals,1,t_233.png,233,tbd,27.7478139112282,36.8551836479674,9.04367659493931,0,1.44248388008236,0,2,1
4,2,animal,0,0,animals,1,a_075.png,75,tbd,41.4088780977236,49.2485702393515,7.77189775709264,1,1.46649439972134,0,1,0
5,2,tool,0,0,animals,1,t_260.png,260,tbd,53.8022486372829,63.3933614982016,9.54131442106157,0,1.49221481702261,0,2,1
6,2,animal,1,0,animals,1,a_132.png,132,tbd,67.9470311396744,75.1695619431885,7.15396959471023,0,1.12441393955851,1,2,0
7,2,animal,1,0,animals,1,a_022.png,22,tbd,79.9234038817121,88.1967845193376,8.21255089528067,1,4.24673988256654,1,1,1
8,2,animal,1,0,animals,1,a_102.png,102,tbd,92.9506227872116,102.79192514468,9.77233698761817,1,1.11604800733949,1,1,1
9,2,tool,0,0,animals,1,t_297.png,297,tbd,107.54576909416,114.3679361615,6.77219753175871,1,0.787386527108538,0,1,0
10,2,tool,0,0,animals,1,t_285.png,285,tbd,118.921665402911,125.693808352142,6.73201290667333,0,2.75695917972553,0,2,1
11,2,animal,0,0,animals,1,a_152.png,152,tbd,130.247483364579,139.104661548141,8.79340961713637,0,2.03859289217689,0,2,1
12,2,animal,1,0,animals,1,a_088.png,88,tbd,143.658337100094,153.549697557793,9.82768546844661,0,1.56197583519315,1,2,0
13,2,animal,1,0,animals,1,a_143.png,143,tbd,158.303531966771,166.443471155313,8.08228251315708,0,1.59367333940463,1,2,0
14,2,tool,0,0,animals,1,t_270.png,270,tbd,171.214002366802,181.122013070157,9.8562125403688,1,1.30658438366663,0,1,0
15,2,animal,1,0,animals,1,a_069.png,69,tbd,185.659029477674,191.897405765018,6.18302146130427,0,1.87462118559597,1,2,0
16,2,tool,0,0,animals,1,t_209.png,209,tbd,196.651261189498,202.806259697551,6.08951521230768,0,2.77817393959231,0,2,1
17,2,tool,0,0,animals,1,t_287.png,287,tbd,207.35993308083,214.782615201475,7.35044117544559,1,1.93322721690856,0,1,0
18,2,tool,0,0,animals,1,t_317.png,317,tbd,219.336293721541,228.777288088922,9.39149478874521,0,1.33600533016579,0,2,1
19,2,animal,1,0,animals,1,a_072.png,72,tbd,233.314285705635,241.83785887908,8.45871417494376,1,2.12391062177085,1,1,1
20,2,tool,0,0,animals,1,t_354.png,354,tbd,246.591693705439,254.414697052809,7.76802582861954,0,0.62049609785754,0,2,1
21,2,animal,1,0,animals,1,a_112.png,112,tbd,258.96840240221,266.791394931188,7.78787999991598,0,1.31912061301227,1,2,0
22,2,tool,0,0,animals,1,t_275.png,275,tbd,271.545238401965,281.353172802763,9.74993577153407,0,1.17282539278858,0,2,1
23,2,tool,0,0,animals,1,t_215.png,215,tbd,285.890192224068,294.146898235484,8.19741131368251,0,0.981588019953051,0,2,1
24,2,tool,0,0,animals,1,t_314.png,314,tbd,298.700569892959,305.055731009938,6.30538560644891,0,0.602164444335358,0,2,1
25,2,animal,0,0,animals,1,a_174.png,174,tbd,309.592723754578,316.715159479867,7.05731767937844,1,1.42221142079507,0,1,0
26,2,animal,1,0,animals,1,a_103.png,103,tbd,321.268829767854,327.824155178934,6.49415906122788,1,1.75457485017796,1,1,1
27,2,animal,1,0,animals,1,a_015.png,15,tbd,332.561310537545,341.084900083551,8.45386105092869,0,1.07526600520578,1,2,0
28,2,tool,0,0,animals,1,t_339.png,339,tbd,345.83873900829,354.51244310238,8.61175672523883,1,1.16412707367999,0,1,0
29,2,animal,0,0,animals,1,a_027.png,27,tbd,359.066111878299,368.090095293028,8.96255838873243,0,1.19702362317366,0,2,1
30,2,animal,1,0,animals,1,a_035.png,35,tbd,372.643772754245,381.917962547068,9.21626416737099,1,1.9126313459692,1,1,1
31,2,tool,0,0,animals,1,t_252.png,252,tbd,386.671805381677,396.062750756553,9.33558797630035,0,1.23034471208848,0,2,1
32,2,animal,1,0,animals,1,a_142.png,142,tbd,400.616422536163,406.971596080248,6.29546131907302,1,0.723826504090539,1,1,1
33,2,animal,0,0,animals,1,a_045.png,45,tbd,411.72543002087,419.948761289234,8.16180099156881,1,0.88413996230156,0,1,0
34,2,tool,0,0,animals,1,t_196.png,196,tbd,424.502437121295,432.292095273486,7.72644684696386,0,1.9782527963871,0,2,1
35,2,animal,1,0,animals,1,a_114.png,114,tbd,436.84576928814,445.769680605436,8.86013629310603,1,1.9751186168487,1,1,1
36,2,tool,0,0,animals,1,t_291.png,291,tbd,450.523505534977,460.281428835267,9.69731285730455,1,0.634906165987559,0,1,0
37,2,tool,0,0,animals,1,t_191.png,191,tbd,464.818425342155,471.307009117412,6.42250522330693,0,0.909571469665025,0,2,1
38,2,tool,0,0,animals,1,t_188.png,188,tbd,475.860688803323,483.81715304719,7.89572935144649,0,0.683921571193423,0,2,1
39,2,animal,1,0,animals,1,a_065.png,65,tbd,488.370822602106,494.709297220681,6.27769428082322,0,1.05213332875792,1,2,0
40,2,animal,0,0,animals,1,a_173.png,173,tbd,499.463139922807,506.385418868404,6.86388528490474,0,2.44650125863154,0,2,1
41,2,animal,1,0,animals,1,a_151.png,151,tbd,510.93910382863,519.362603830394,8.36321465456601,0,1.37975332522365,1,2,0
42,2,tool,0,0,animals,1,t_313.png,313,tbd,524.116444888226,532.840184112112,8.67135774876692,0,1.07560243445369,0,2,1
43,2,animal,1,0,animals,1,a_119.png,119,tbd,537.393856304057,545.366991498438,7.90539143854824,1,1.18422278344951,1,1,1
44,2,tool,0,0,animals,1,t_329.png,329,tbd,550.120832291559,557.843773453445,7.67183436923056,0,1.8399054651436,0,2,1
45,2,animal,1,0,animals,1,a_025.png,25,tbd,562.397445049854,572.08859611769,9.63464538870132,0,1.25955682483254,1,2,0
46,2,tool,0,0,animals,1,t_328.png,328,tbd,576.842475922722,585.53283889679,8.63402505572804,0,2.32684714978495,0,2,1
47,2,animal,1,0,animals,1,a_071.png,71,tbd,590.086519554998,598.526703906931,8.38735020260485,0,1.03230805355088,1,2,0
48,2,tool,0,0,animals,1,t_190.png,190,tbd,603.280541304208,609.719112238012,6.3711478872017,0,1.23533972264886,0,2,1
49,2,tool,0,0,animals,1,t_207.png,207,tbd,614.27277774048,623.213359097061,8.88472668800604,0,0.60552224139974,0,2,1
50,2,animal,0,0,animals,1,a_037.png,37,tbd,627.767044464579,635.306485333735,7.47672959870159,1,0.951845484511068,0,1,0
51,2,tool,0,0,animals,1,t_235.png,235,tbd,639.843490683636,648.066818851659,8.17191988179604,1,1.65197271342731,0,1,0
52,2,tool,0,0,animals,1,t_238.png,238,tbd,652.603817150466,662.178258735094,9.51258578639525,0,1.26600367513674,0,2,1
53,2,animal,0,0,animals,1,a_099.png,99,tbd,666.748607085758,673.821018906932,7.02234045414537,1,2.1166766404167,0,1,0
54,2,tool,0,0,animals,1,t_264.png,264,tbd,678.374692081523,685.130151765174,6.70523744559576,0,1.34491327160868,0,2,1
55,2,tool,0,0,animals,1,t_210.png,210,tbd,689.683863906004,697.490168943845,7.7534678615297,0,0.796289902327771,0,2,1
56,2,tool,0,0,animals,1,t_296.png,296,tbd,702.043853598478,710.383944099103,8.27647546772669,0,1.18701647598573,0,2,1
57,2,animal,0,0,animals,1,a_003.png,3,tbd,714.920952717412,724.762265328009,9.77579476861172,0,2.13618748452063,0,2,1
58,2,animal,1,0,animals,1,a_093.png,93,tbd,729.315944011094,738.656855391486,9.27272429939548,1,1.05686569396676,1,1,1
59,2,animal,1,0,animals,1,a_080.png,80,tbd,743.394011157387,752.618149824606,9.16978064060079,0,1.35424141538533,1,2,0
60,2,tool,0,0,animals,1,t_358.png,358,tbd,757.388680022917,764.594503745304,7.15751771721761,0,0.628286246905191,0,2,1
