trial,phase,object,toShock,seenBefore,shockedCategory,responseSide,filename,num,name,onsetFixationCross,onsetStimulus,interTrialTime,response,reactionTime,wasShocked,buttonPressed,isResponseCorrect
1,2,animal,1,0,animals,2,a_092.png,92,tbd,0.0257861485256399,8.34920416320938,8.20860042858821,0,1.04846846450755,1,2,0
2,2,animal,1,0,animals,2,a_098.png,98,tbd,13.1364095097447,20.058687692773,6.84778928020878,1,2.07541749698748,1,1,1
3,2,tool,0,0,animals,2,t_300.png,300,tbd,24.8125249789252,32.9191039203818,8.03716868363077,0,1.46439067252845,0,2,1
4,2,tool,0,0,animals,2,t_183.png,183,tbd,37.47278018662,45.6627530815724,8.12107863150877,0,1.39822160900781,0,2,1
5,2,tool,0,0,animals,2,t_226.png,226,tbd,50.2164307208288,59.2737730048143,8.98913916072921,0,1.49667144554587,0,2,1
6,2,animal,1,0,animals,2,a_130.png,130,tbd,63.827446359207,72.3677229579177,8.47760786749233,1,0.846114714248188,1,1,1
7,2,animal,1,0,animals,2,a_149.png,149,tbd,77.1215575915912,85.9453760928282,8.75811345027883,1,1.4969965542291,1,1,1
8,2,tool,0,0,animals,2,t_271.png,271,tbd,90.6992075048061,98.5055504319694,7.7336867097359,0,1.06327213203394,0,2,1
9,2,tool,0,0,animals,2,t_351.png,351,tbd,103.059218384372,111.849684324887,8.73905291496546,0,1.49058241653211,0,2,1
10,2,tool,0,0,animals,2,t_285.png,285,tbd,116.386676418629,122.758518773198,6.29660453252954,0,0.634093317630231,0,2,1
11,2,animal,1,0,animals,2,a_002.png,2,tbd,127.312198722432,136.669790185152,9.283518926859,1,1.11331651237765,1,1,1
12,2,animal,1,0,animals,2,a_006.png,6,tbd,141.423616490632,148.86298823058,7.36748861599542,1,1.0065430587606,1,1,1
13,2,animal,1,0,animals,2,a_105.png,105,tbd,153.616836345953,162.207118804309,8.52987665669705,1,1.21187716438862,1,1,1
14,2,tool,0,0,animals,2,t_227.png,227,tbd,166.977656689153,173.282762353279,6.25535346348873,0,0.989609546468728,0,2,1
15,2,animal,0,0,animals,2,a_009.png,9,tbd,177.836445737026,185.259128496946,7.36176644969917,1,1.00373396825785,0,1,0
16,2,tool,0,0,animals,2,t_282.png,282,tbd,189.812814716814,197.018658746008,7.13536499534234,1,2.00936568492193,0,1,0
17,2,animal,0,0,animals,2,a_131.png,131,tbd,201.555651138717,209.245222775965,7.62940620552681,1,2.80046029227606,0,1,0
18,2,animal,1,0,animals,2,a_155.png,155,tbd,213.815582418307,220.871314835229,6.98205976736623,0,2.7667249556398,1,2,0
19,2,animal,1,0,animals,2,a_053.png,53,tbd,225.625137987329,232.71423042105,7.02994906444181,1,2.13026792091728,1,1,1
20,2,tool,0,0,animals,2,t_304.png,304,tbd,237.468062283445,246.425337310261,8.89034379283731,0,0.912726952592266,0,2,1
21,2,tool,0,0,animals,2,t_210.png,210,tbd,250.979002055326,259.485909198868,8.4393733858346,0,1.33447830521732,0,2,1
22,2,tool,0,0,animals,2,t_264.png,264,tbd,264.056265734839,270.494824620174,6.371504615238,0,1.16191619264873,0,2,1
23,2,animal,0,0,animals,2,a_107.png,107,tbd,275.048497974567,281.336931776812,6.22241384258726,1,1.4091436450085,0,1,0
24,2,animal,1,0,animals,2,a_011.png,11,tbd,285.890609416069,293.897105330445,7.94368503253329,1,1.32245070350291,1,1,1
25,2,tool,0,0,animals,2,t_348.png,348,tbd,298.65094745632,306.040271212126,7.32423684141575,0,1.26070757101616,0,2,1
26,2,animal,1,0,animals,2,a_005.png,5,tbd,310.59395318673,317.366111079843,6.69475374367429,1,1.75725594443111,1,1,1
27,2,animal,0,0,animals,2,a_021.png,21,tbd,322.119955551821,331.711067485511,9.52719156392316,1,1.34981996549323,0,1,0
28,2,animal,0,0,animals,2,a_160.png,160,tbd,336.281418046341,342.820061573308,6.47438767240038,1,1.46718499492135,0,1,0
29,2,tool,0,0,animals,2,t_346.png,346,tbd,347.390410105294,354.76307308781,7.30314807127091,1,1.67459279166951,0,1,0
30,2,animal,0,0,animals,2,a_028.png,28,tbd,359.316740247295,367.490039157505,8.11113990447641,0,0.976106594809607,0,2,1
31,2,animal,1,0,animals,2,a_040.png,40,tbd,372.043710882987,380.450525838738,8.33499651288399,0,1.16401058394604,1,2,0
32,2,tool,0,0,animals,2,t_291.png,291,tbd,385.204370631449,394.144959280233,8.86870873537656,0,1.24904896454882,0,2,1
33,2,tool,0,0,animals,2,t_218.png,218,tbd,398.698627182152,407.022050213251,8.25130236649042,0,0.818390526220355,0,2,1
34,2,animal,1,0,animals,2,a_031.png,31,tbd,411.559043589928,419.315311061241,7.67236552406108,1,0.979523104984764,1,1,1
35,2,animal,0,0,animals,2,a_003.png,3,tbd,424.085866709175,430.87463286441,6.72899797113354,1,1.53369389655427,0,1,0
36,2,tool,0,0,animals,2,t_261.png,261,tbd,435.428388028592,444.652513480353,9.16303281039142,0,1.20426864297451,0,2,1
37,2,tool,0,0,animals,2,t_262.png,262,tbd,449.206191206219,456.762311762952,7.49382389414092,0,1.35987399897158,0,2,1
38,2,animal,1,0,animals,2,a_080.png,80,tbd,461.316008808567,469.122342394853,7.72800973887358,1,1.27522182486155,1,1,1
39,2,tool,0,0,animals,2,t_306.png,306,tbd,473.876171356286,481.248819804817,7.31003144243822,0,0.736189741822727,0,2,1
40,2,tool,0,0,animals,2,t_289.png,289,tbd,485.785814478787,495.393607031659,9.54370353785452,0,0.91889058288325,0,2,1
41,2,tool,0,0,animals,2,t_328.png,328,tbd,499.93060539951,506.869574753743,6.87949958495517,0,1.08532559268133,0,2,1
42,2,animal,1,0,animals,2,a_070.png,70,tbd,511.423254432727,518.245454461048,6.75127738892012,1,0.850837504154697,1,1,1
43,2,animal,0,0,animals,2,a_047.png,47,tbd,522.999281472837,531.806433492417,8.74258800549448,1,0.846337278218925,0,1,0
44,2,tool,0,0,animals,2,t_321.png,321,tbd,536.360103743914,543.88288141983,7.45850600659564,0,1.29938129894617,0,2,1
45,2,tool,0,0,animals,2,t_246.png,246,tbd,548.436559199654,555.19203879792,6.6946290346832,0,1.21453996418268,0,2,1
46,2,tool,0,0,animals,2,t_214.png,214,tbd,559.745710714453,567.852281421274,8.03996682140049,0,0.920678864512865,0,2,1
47,2,animal,0,0,animals,2,a_138.png,138,tbd,572.422652938172,580.345730609438,7.86494009248501,1,1.07470994400728,0,1,0
48,2,animal,1,0,animals,2,a_019.png,19,tbd,584.899413351718,592.071883784921,7.109547707226,1,2.37801744512535,1,1,1
49,2,tool,0,0,animals,2,t_329.png,329,tbd,596.825743904536,605.933125231717,9.03598353664532,0,1.24123364559955,0,2,1
50,2,tool,0,0,animals,2,t_336.png,336,tbd,610.486806193636,616.942034868932,6.38694246678761,0,0.622738110918817,0,2,1
51,2,tool,0,0,animals,2,t_334.png,334,tbd,621.495712302779,630.369589563421,8.8012155597882,0,0.914579564610449,0,2,1
52,2,animal,1,0,animals,2,a_101.png,101,tbd,634.939938225089,642.262552491914,7.25676286225545,1,1.09098781517514,1,1,1
53,2,animal,1,0,animals,2,a_177.png,177,tbd,647.016385381352,655.006194676162,7.91868518495826,1,1.62786833711198,1,1,1
54,2,animal,1,0,animals,2,a_154.png,154,tbd,659.760042034743,667.032608612919,7.20599005625657,1,1.37083176957503,1,1,1
55,2,tool,0,0,animals,2,t_229.png,229,tbd,671.769767964558,678.575255310747,6.7426679163303,0,0.818569795071198,0,2,1
56,2,tool,0,0,animals,2,t_193.png,193,tbd,683.145655236315,689.884425028169,6.68329375355759,0,0.620754982036942,0,2,1
57,2,tool,0,0,animals,2,t_198.png,198,tbd,694.438115118608,702.661458805622,8.15209073394935,0,0.787141849124055,0,2,1
58,2,animal,0,0,animals,2,a_137.png,137,tbd,707.215137226913,716.32251283137,9.04799841279277,1,1.28762921839461,0,1,0
59,2,animal,1,0,animals,2,a_017.png,17,tbd,720.859521567141,727.314755539986,6.38753147587146,1,1.03178571551371,1,1,1
60,2,tool,0,0,animals,2,t_195.png,195,tbd,732.068586079846,740.575498376895,8.44756091956195,0,0.555468753991136,0,2,1
