trial,phase,object,toShock,seenBefore,shockedCategory,responseSide,filename,num,name,onsetFixationCross,onsetStimulus,interTrialTime,response,reactionTime,wasShocked,buttonPressed,isResponseCorrect
1,1,tool,0,0,animals,2,t_280.png,280,tbd,0.0261345798667207,5.49649028320232,5.25189613647786,animal,0.644130933141923,0,2,0
2,1,tool,0,0,animals,2,t_244.png,244,tbd,8.09866274109072,13.4359392818876,5.27323607712355,tool,0.742964392470185,0,1,1
3,1,tool,0,0,animals,2,t_276.png,276,tbd,15.9879114575945,23.8936693016992,7.83672752378735,tool,0.638601483530692,0,1,1
4,1,animal,0,0,animals,2,a_025.png,25,tbd,26.445622233382,32.9169523258079,6.42616545200186,animal,0.68463543447956,0,2,1
5,1,animal,0,0,animals,2,a_102.png,102,tbd,35.4856639159384,40.7061449459811,5.16408691775721,animal,0.649701436671421,0,2,1
6,1,animal,0,0,animals,2,a_002.png,2,tbd,43.2747487695763,48.8287547179043,5.50194105563796,animal,0.688374869109339,0,2,1
7,1,tool,0,0,animals,2,t_314.png,314,tbd,51.3807602499196,59.3198525926905,7.88525525925037,tool,0.543468650050045,0,1,1
8,1,tool,0,0,animals,2,t_303.png,303,tbd,61.8718501063624,67.9428951947903,6.02718667093079,tool,0.610895541200534,0,1,1
9,1,animal,0,0,animals,2,a_073.png,73,tbd,70.5115464869784,76.9161549817397,6.33139802425397,animal,0.454935233924743,0,2,1
10,1,animal,0,0,animals,2,a_097.png,97,tbd,79.4681775126433,87.4573171476034,7.92932522065443,animal,0.554110274681989,0,2,1
11,1,tool,0,0,animals,2,t_284.png,284,tbd,90.0260024375675,97.3813234583604,7.29920050834018,tool,0.595481398574748,0,1,1
12,1,animal,0,0,animals,2,a_147.png,147,tbd,99.9499625626665,107.422077169811,7.42133951580614,animal,0.509062579971669,0,2,1
13,1,tool,0,0,animals,2,t_299.png,299,tbd,109.990722368058,115.177789357468,5.130122978951,tool,0.601628581361865,0,1,1
14,1,animal,0,0,animals,2,a_175.png,175,tbd,117.746475609634,125.552131813218,7.75118994443341,animal,0.762650066994183,0,2,1
15,1,tool,0,0,animals,2,t_342.png,342,tbd,128.137510011214,136.110053278996,7.91228131481408,tool,0.54107982518326,0,1,1
16,1,animal,0,0,animals,2,a_034.png,34,tbd,138.661943026133,143.732253313572,4.99662095751471,animal,0.703151393067628,0,2,1
17,1,tool,0,0,animals,2,t_286.png,286,tbd,146.300903322825,151.004300630778,4.65529099341998,tool,0.663398050140358,0,1,1
18,1,animal,0,0,animals,2,a_091.png,91,tbd,153.572941338753,160.911687481529,7.27750264387924,animal,0.655253337644353,0,2,1
19,1,animal,0,0,animals,2,a_006.png,6,tbd,163.480295153929,169.28458535253,5.73893301641073,animal,0.71470999545113,0,2,1
20,1,animal,0,0,animals,2,a_166.png,166,tbd,171.853139462396,176.94015580795,5.02906508951864,animal,0.787426106644489,0,2,1
21,1,tool,0,0,animals,2,t_194.png,194,tbd,179.492125417787,185.329642669253,5.77501530052604,tool,0.581195917966397,0,1,1
22,1,animal,0,0,animals,2,a_142.png,142,tbd,187.898322827477,195.820701093789,7.86599214498803,animal,0.603458046592777,0,2,1
23,1,animal,0,0,animals,2,a_077.png,77,tbd,198.372767565215,203.276302083061,4.85564159096547,animal,0.534217726898305,0,2,1
24,1,tool,0,0,animals,2,t_245.png,245,tbd,205.844958186255,210.881903826056,4.9765460645645,tool,0.614818114793479,0,1,1
25,1,tool,0,0,animals,2,t_320.png,320,tbd,213.433881133503,219.922016390768,6.42763272036024,tool,0.660995112988758,0,1,1
26,1,tool,0,0,animals,2,t_309.png,309,tbd,222.473910307443,227.077134451253,4.53999566690794,tool,0.500216102061358,0,1,1
27,1,animal,0,0,animals,2,a_014.png,14,tbd,229.645875548887,236.71764389189,7.00180200298557,animal,0.417970029365506,0,2,1
28,1,tool,0,0,animals,2,t_224.png,224,tbd,239.286293901143,244.890462285071,5.53562834950851,tool,0.613422602307764,0,1,1
29,1,animal,0,0,animals,2,a_008.png,8,tbd,247.44236422009,251.595340420685,4.11154555395453,animal,1.18081244871132,0,2,1
30,1,tool,0,0,animals,2,t_222.png,222,tbd,254.147317407398,260.868945541648,6.65795826986013,tool,0.714501518522638,0,1,1
31,1,tool,0,0,animals,2,t_304.png,304,tbd,263.420841061992,269.808802834379,6.32310508093232,tool,0.671958433558075,0,1,1
32,1,tool,0,0,animals,2,t_205.png,205,tbd,272.37744322162,278.598613508462,6.15479684416018,tool,0.617462885182022,0,1,1
33,1,animal,0,0,animals,2,a_068.png,68,tbd,281.167237859017,289.189753046561,7.96142691353757,animal,0.538664700149866,0,2,1
34,1,animal,0,0,animals,2,a_060.png,60,tbd,291.758423262039,297.612665815644,5.80582341515165,animal,0.604053007673429,0,2,1
35,1,animal,0,0,animals,2,a_138.png,138,tbd,300.181379009443,305.952166965635,5.72260734503779,animal,0.669838062828376,0,2,1
36,1,tool,0,0,animals,2,t_349.png,349,tbd,308.504178912325,314.30833376129,5.74605919917973,tool,0.750988188347492,0,1,1
37,1,tool,0,0,animals,2,t_328.png,328,tbd,316.877037653811,323.681964188145,6.73974430166487,tool,0.489586986045197,0,1,1
38,1,tool,0,0,animals,2,t_270.png,270,tbd,326.250572822746,333.105572949436,6.80208735026237,tool,0.68338328997379,0,1,1
39,1,animal,0,0,animals,2,a_015.png,15,tbd,335.674257277199,341.678628236555,5.93749150992776,animal,0.549611342564958,0,2,1
40,1,animal,0,0,animals,2,a_035.png,35,tbd,344.263927854786,351.919581059509,7.59286640932221,animal,0.58300645990721,0,2,1
41,1,tool,0,0,animals,2,t_317.png,317,tbd,354.488176544027,358.841274559295,4.2989136346728,tool,0.580563110304865,0,1,1
42,1,animal,0,0,animals,2,a_157.png,157,tbd,361.409942529637,366.947263588277,5.46594403749155,animal,0.544850370985614,0,2,1
43,1,tool,0,0,animals,2,t_265.png,265,tbd,369.515958820987,376.888018633801,7.30698694981493,tool,0.646453988527128,0,1,1
44,1,animal,0,0,animals,2,a_042.png,42,tbd,379.456590685691,386.561802256096,7.04463710558387,animal,0.609989789129713,0,2,1
45,1,tool,0,0,animals,2,t_233.png,233,tbd,389.113704191115,396.952831525936,7.79031552638094,tool,0.612320240456711,0,1,1
46,1,tool,0,0,animals,2,t_228.png,228,tbd,399.521455555757,403.657746225196,4.08323728969702,tool,0.633636204561299,0,1,1
47,1,animal,0,0,animals,2,a_160.png,160,tbd,406.243098443759,412.781109079931,6.46301831562276,animal,0.669588852715378,0,2,1
48,1,tool,0,0,animals,2,t_288.png,288,tbd,415.33314411945,420.536835059139,5.15194185928801,tool,0.685137703510236,0,1,1
49,1,animal,0,0,animals,2,a_143.png,143,tbd,423.105537027258,430.210639227459,7.02214839399188,animal,1.3116775862693,0,2,1
50,1,tool,0,0,animals,2,t_249.png,249,tbd,432.779368778679,438.483478756994,5.64451624303883,tool,0.783122180639111,0,1,1
51,1,animal,0,0,animals,2,a_049.png,49,tbd,441.052146406603,447.573656895718,6.45098258855363,animal,0.691188666176686,0,2,1
52,1,animal,0,0,animals,2,a_089.png,89,tbd,450.142196251833,457.213786266878,7.00251159444828,animal,0.851472143482169,0,2,1
53,1,tool,0,0,animals,2,t_268.png,268,tbd,459.782729106032,466.337303394541,6.50488888208063,tool,0.70725614342291,0,1,1
54,1,tool,0,0,animals,2,t_214.png,214,tbd,468.906073678945,475.460961645047,6.48443722246733,tool,0.726929630064888,0,1,1
55,1,tool,0,0,animals,2,t_219.png,219,tbd,478.02947341806,482.382555717375,4.29947263536453,tool,0.642544904816532,0,1,1
56,1,animal,0,0,animals,2,a_164.png,164,tbd,484.951280136855,491.405860872111,6.39815347059069,animal,0.843556434873562,0,2,1
57,1,animal,0,0,animals,2,a_134.png,134,tbd,493.974622175971,499.045014891979,5.00369631267527,animal,0.702677348605675,0,2,1
58,1,animal,0,0,animals,2,a_009.png,9,tbd,501.596920996536,508.184921192826,6.53715634343383,animal,0.516079592651295,0,2,1
59,1,tool,0,0,animals,2,t_186.png,186,tbd,510.753681534484,518.475977115639,7.66560799788302,tool,0.50935797574266,0,1,1
60,1,animal,0,0,animals,2,a_120.png,120,tbd,521.027927802186,527.182397980523,6.10136965650169,animal,0.589241844471417,0,2,1
