trial,phase,object,toShock,seenBefore,shockedCategory,responseSide,filename,num,name,onsetFixationCross,onsetStimulus,interTrialTime,response,reactionTime,wasShocked,buttonPressed,isResponseCorrect
1,3,tool,0,0,animals,2,t_209.png,209,tbd,0.0175373967676933,6.7728587272768,6.6725081901458,tool,0.880276396883801,0,1,1
2,3,animal,0,0,animals,2,a_018.png,18,tbd,9.34175437957083,14.9963197413695,5.60562956575869,animal,0.872087055491193,0,2,1
3,3,animal,0,0,animals,2,a_104.png,104,tbd,17.5484087199484,23.1862926193712,5.58827472025178,animal,0.962389597963465,0,2,1
4,3,animal,0,0,animals,2,a_036.png,36,tbd,25.7383707154859,31.3429038780396,5.55639534029807,animal,0.755052374519892,0,2,1
5,3,tool,0,0,animals,2,t_275.png,275,tbd,33.8949773273316,38.8990349446781,4.9504490432185,tool,0.899135333503637,0,1,1
6,3,tool,0,0,animals,2,t_318.png,318,tbd,41.4510998871015,45.5210516464062,4.01687768016654,tool,0.861405693601228,0,1,1
7,3,animal,0,0,animals,2,a_108.png,108,tbd,48.0731253269155,54.1780640311868,6.0474006747536,animal,1.74772171033828,0,2,1
8,3,animal,0,0,animals,2,a_180.png,180,tbd,56.7301413292839,63.5523249571415,6.76075150334807,animal,0.884708435409721,0,2,1
9,3,animal,0,0,animals,2,a_120.png,120,tbd,66.1043932486027,73.1267456972928,6.96938068502951,animal,0.995661370908692,0,2,1
10,3,tool,0,0,animals,2,t_279.png,279,tbd,75.6788101399484,81.4668348678301,5.73404908948194,tool,1.22186481666404,0,1,1
11,3,animal,0,0,animals,2,a_068.png,68,tbd,84.0188984378019,89.3899092792922,5.32278571293632,animal,0.659047838928018,0,2,1
12,3,tool,0,0,animals,2,t_187.png,187,tbd,91.9419808563653,97.1462004696182,5.15068664280674,tool,0.974120546363338,0,1,1
13,3,tool,0,0,animals,2,t_213.png,213,tbd,99.6982647966656,104.602233986999,4.86090532616425,tool,0.714195181681134,0,1,1
14,3,tool,0,0,animals,2,t_325.png,325,tbd,107.154301663084,113.476091217364,6.26109285966906,tool,1.2956810706637,0,1,1
15,3,animal,0,0,animals,2,a_102.png,102,tbd,116.028153646101,121.849529987145,5.75311962845678,animal,0.659563295375847,0,2,1
16,3,tool,0,0,animals,2,t_194.png,194,tbd,124.401598047389,128.488245795213,4.02896057145576,tool,0.829079503526827,0,1,1
17,3,animal,0,0,animals,2,a_089.png,89,tbd,131.040313008864,135.694070945757,4.58767652817588,animal,0.940549502750855,0,2,1
18,3,tool,0,0,animals,2,t_234.png,234,tbd,138.24614374234,144.100886219082,5.79957210288259,tool,0.831993511219935,0,1,1
19,3,tool,0,0,animals,2,t_222.png,222,tbd,146.652952701749,154.092311402645,7.39377431964277,tool,0.903894958722958,0,1,1
20,3,animal,0,0,animals,2,a_046.png,46,tbd,156.627702617636,164.033693142825,7.3423214747779,animal,1.16394202319134,0,2,1
21,3,tool,0,0,animals,2,t_267.png,267,tbd,166.585762075753,173.474672112282,6.84184117848514,tool,0.760155979246974,0,1,1
22,3,animal,0,0,animals,2,a_151.png,151,tbd,176.026736323721,182.582053241287,6.49830098296545,animal,1.16619739673206,0,2,1
23,3,animal,0,0,animals,2,a_171.png,171,tbd,185.134110806835,189.887965845401,4.70278639138281,animal,0.821513215656978,0,2,1
24,3,animal,0,0,animals,2,a_119.png,119,tbd,192.440033495394,200.363118621528,7.86956544170345,animal,1.06868745259135,0,2,1
25,3,tool,0,0,animals,2,t_206.png,206,tbd,202.915177548286,207.885872942164,4.92156190650677,tool,0.653166928567316,0,1,1
26,3,animal,0,0,animals,2,a_133.png,133,tbd,210.421265786915,215.658830110131,5.17972535816685,animal,1.27853796807449,0,2,1
27,3,tool,0,0,animals,2,t_205.png,205,tbd,218.210903096989,225.650260951293,7.37241872999569,tool,1.1523595074782,0,1,1
28,3,tool,0,0,animals,2,t_268.png,268,tbd,228.202325971992,234.140464299689,5.89622006347581,tool,0.900632596858941,0,1,1
29,3,tool,0,0,animals,2,t_191.png,191,tbd,236.692533258709,244.215294713762,7.4683264157306,tool,0.635030077255124,0,1,1
30,3,animal,0,0,animals,2,a_091.png,91,tbd,246.767359182511,251.788085701433,4.9522778506866,animal,0.734462361318947,0,2,1
31,3,animal,0,0,animals,2,a_085.png,85,tbd,254.34016395049,261.495948074186,7.08825534932979,animal,0.628964245228417,0,2,1
32,3,tool,0,0,animals,2,t_196.png,196,tbd,264.04802653961,271.670862667459,7.56005356294232,tool,1.00244115623218,0,1,1
33,3,tool,0,0,animals,2,t_192.png,192,tbd,274.2396024934,279.126900059737,4.82978618005368,tool,0.945570690148088,0,1,1
34,3,tool,0,0,animals,2,t_333.png,333,tbd,281.678961962615,286.18261547412,4.45013291502211,tool,0.947188355505205,0,1,1
35,3,animal,0,0,animals,2,a_135.png,135,tbd,288.734682598254,293.421807095945,4.63117535827862,animal,0.876213880682826,0,2,1
36,3,tool,0,0,animals,2,t_202.png,202,tbd,295.973875234464,302.262300398415,6.2401794888664,tool,1.19807054297962,0,1,1
37,3,tool,0,0,animals,2,t_280.png,280,tbd,304.814374489175,312.17031441047,7.30152991610591,tool,0.846351876661174,0,1,1
38,3,animal,0,0,animals,2,a_134.png,134,tbd,314.722385461685,322.695508168479,7.90539954486133,animal,0.606508509034029,0,2,1
39,3,animal,0,0,animals,2,a_103.png,103,tbd,325.247584478283,332.686941254778,7.39400777217303,animal,0.804387227564803,0,2,1
40,3,tool,0,0,animals,2,t_308.png,308,tbd,335.222321475304,342.911879432035,7.63920250241779,tool,1.31287377137278,0,1,1
41,3,animal,0,0,animals,2,a_013.png,13,tbd,345.46395670404,353.036750145581,7.51765734779737,animal,0.854340865503218,0,2,1
42,3,animal,0,0,animals,2,a_057.png,57,tbd,355.572137858592,360.259266257272,4.62204220437678,animal,0.678060767015268,0,2,1
43,3,tool,0,0,animals,2,t_345.png,345,tbd,362.811338833879,367.498465076939,4.6356486653722,tool,1.90415839672914,0,1,1
44,3,animal,0,0,animals,2,a_049.png,49,tbd,370.033851186281,375.838543405955,5.74439853105363,animal,0.693322934033858,0,2,1
45,3,tool,0,0,animals,2,t_221.png,221,tbd,378.390622013079,385.146079732033,6.69991956797477,tool,1.31813167511837,0,1,1
46,3,tool,0,0,animals,2,t_347.png,347,tbd,387.698159390875,391.934913246031,4.17493214285779,tool,0.630678887781869,0,1,1
47,3,animal,0,0,animals,2,a_061.png,61,tbd,394.486983346285,399.157434720677,4.60555667729731,animal,0.586229424915018,0,2,1
48,3,animal,0,0,animals,2,a_016.png,16,tbd,401.709499894318,407.647643905706,5.8821034062831,animal,0.826326466835326,0,2,1
49,3,tool,0,0,animals,2,t_330.png,330,tbd,410.199703652965,417.155344036485,6.89612282533436,tool,1.01793044006945,0,1,1
50,3,animal,0,0,animals,2,a_096.png,96,tbd,419.707405797663,426.763116490557,6.98741286235757,animal,0.986528697747417,0,2,1
51,3,animal,0,0,animals,2,a_038.png,38,tbd,429.298508130648,437.288280566053,7.93480552487062,animal,1.58866640800034,0,2,1
52,3,animal,0,0,animals,2,a_147.png,147,tbd,439.857057182832,445.895276057291,5.98100872953823,animal,0.969026951416254,0,2,1
53,3,tool,0,0,animals,2,t_297.png,297,tbd,448.447354474139,453.784987551634,5.2780553266801,tool,0.916586064295643,0,1,1
54,3,tool,0,0,animals,2,t_319.png,319,tbd,456.337067023809,460.907434241485,4.50173309428693,tool,2.09543728765448,0,1,1
55,3,animal,0,0,animals,2,a_114.png,114,tbd,463.459496670223,467.612858556952,4.10973659563327,animal,1.37720126309705,0,2,1
56,3,tool,0,0,animals,2,t_231.png,231,tbd,470.181614475371,475.769453853599,5.53959011599457,tool,0.819870652286227,0,1,1
57,3,tool,0,0,animals,2,t_274.png,274,tbd,478.321540020241,483.509053452554,5.13214466857063,tool,1.59355728798437,0,1,1
58,3,tool,0,0,animals,2,t_263.png,263,tbd,486.061134054722,491.682339553798,5.55785022453514,,2.50213173748534,0,,0
59,3,animal,0,0,animals,2,a_078.png,78,tbd,494.201047124702,501.406896557468,7.13710101243468,animal,1.11031962765401,0,2,1
60,3,animal,0,0,animals,2,a_111.png,111,tbd,503.958962193543,511.882049359687,7.87587379653495,animal,1.02053065455948,0,2,1
