trial,phase,object,toShock,seenBefore,shockedCategory,responseSide,filename,num,name,onsetFixationCross,onsetStimulus,interTrialTime,response,reactionTime,wasShocked,buttonPressed,isResponseCorrect
1,3,animal,0,0,animals,2,a_145.png,145,tbd,0.0197428998499163,5.79056936404959,5.70047387232403,animal,1.59537982082747,0,2,1
2,3,animal,0,0,animals,2,a_148.png,148,tbd,8.37599401441275,13.6131317892377,5.19472107659455,animal,0.867104029984148,0,2,1
3,3,animal,0,0,animals,2,a_053.png,53,tbd,16.1818790389107,20.818587730776,4.57714000803194,animal,0.759990130878577,0,2,1
4,3,tool,0,0,animals,2,t_188.png,188,tbd,23.3705838100777,29.2249172336451,5.81004776002977,tool,0.991062434147352,0,1,1
5,3,animal,0,0,animals,2,a_024.png,24,tbd,31.7769155581109,37.3311362744344,5.47668708046177,animal,1.08723596866457,0,2,1
6,3,tool,0,0,animals,2,t_195.png,195,tbd,39.8830396605263,44.4530252786462,4.53483965344015,tool,1.64869926407755,0,1,1
7,3,animal,0,0,animals,2,a_090.png,90,tbd,47.0050412436876,53.3430394937432,6.27681821911949,animal,0.892074425890314,0,2,1
8,3,tool,0,0,animals,2,t_331.png,331,tbd,55.9117440852961,62.8502310755321,6.8956287125287,tool,0.971334496734926,0,1,1
9,3,animal,0,0,animals,2,a_063.png,63,tbd,65.4022079105689,72.6575437037463,7.18798719167145,animal,0.940469903232042,0,2,1
10,3,tool,0,0,animals,2,t_216.png,216,tbd,75.2096093831397,80.6135218063391,5.3549654652931,tool,0.947878624475379,0,1,1
11,3,tool,0,0,animals,2,t_267.png,267,tbd,83.1653110097932,87.5353814309728,4.31467838696726,tool,1.07835121230346,0,1,1
12,3,animal,0,0,animals,2,a_122.png,122,tbd,90.0874631472534,96.8255291371206,6.70080981077388,animal,0.897636980656898,0,2,1
13,3,animal,0,0,animals,2,a_038.png,38,tbd,99.3944332275532,105.915814568058,6.46021344445401,animal,1.92081926361698,0,2,1
14,3,animal,0,0,animals,2,a_023.png,23,tbd,108.467913283439,114.922653979799,6.40295353587405,animal,0.754346108724349,0,2,1
15,3,tool,0,0,animals,2,t_269.png,269,tbd,117.474712602962,122.795205628198,5.25245963761929,tool,1.04810756708048,0,1,1
16,3,animal,0,0,animals,2,a_071.png,71,tbd,125.363965065907,130.85126962436,5.44366751645491,animal,0.741600952826957,0,2,1
17,3,animal,0,0,animals,2,a_158.png,158,tbd,133.403342359984,139.357713887196,5.90570433770383,animal,1.17147196493352,0,2,1
18,3,tool,0,0,animals,2,t_293.png,293,tbd,141.90973530478,148.581288945602,6.61587580997086,tool,0.903287096827626,0,1,1
19,3,animal,0,0,animals,2,a_046.png,46,tbd,151.133328003762,157.538035856577,6.35403302123436,animal,0.648986003624486,0,2,1
20,3,tool,0,0,animals,2,t_255.png,255,tbd,160.10675327764,165.944365680184,5.79121008645077,tool,0.968177475079756,0,1,1
21,3,animal,0,0,animals,2,a_093.png,93,tbd,168.513066102147,175.434802242748,6.86624556311916,animal,0.789232112114405,0,2,1
22,3,tool,0,0,animals,2,t_208.png,208,tbd,177.986835206891,183.37411288752,5.33711992235965,tool,1.254154949027,0,1,1
23,3,tool,0,0,animals,2,t_261.png,261,tbd,185.926161247075,191.546943064581,5.56777588969948,tool,1.04169088769049,0,1,1
24,3,animal,0,0,animals,2,a_018.png,18,tbd,194.09895935036,200.637054976395,6.49265383302625,animal,0.909918991245831,0,2,1
25,3,tool,0,0,animals,2,t_181.png,181,tbd,203.189105581115,210.978157326377,7.74836901693541,tool,0.927375463925273,0,1,1
26,3,animal,0,0,animals,2,a_045.png,45,tbd,213.530260211349,219.217692615868,5.63343044416911,animal,0.667284733632187,0,2,1
27,3,animal,0,0,animals,2,a_087.png,87,tbd,221.769774332149,227.457257413233,5.637243212503,animal,0.585984449970965,0,2,1
28,3,tool,0,0,animals,2,t_303.png,303,tbd,230.009299037295,237.081147500255,7.02500131509174,tool,0.950732869697276,0,1,1
29,3,tool,0,0,animals,2,t_320.png,320,tbd,239.649807829999,246.321461861737,6.62051083902223,tool,1.20275287603454,0,1,1
30,3,animal,0,0,animals,2,a_173.png,173,tbd,248.873428433166,254.927901570097,5.99837497258163,animal,0.735695208670222,0,2,1
31,3,tool,0,0,animals,2,t_276.png,276,tbd,257.479949929651,265.168927007166,7.64356898990853,tool,0.87517924426993,0,1,1
32,3,tool,0,0,animals,2,t_238.png,238,tbd,267.720979536311,272.858053869209,5.08826928722019,tool,0.65430287327581,0,1,1
33,3,tool,0,0,animals,2,t_201.png,201,tbd,275.410091644418,281.397818614485,5.93919718307128,tool,0.693012391361663,0,1,1
34,3,animal,0,0,animals,2,a_165.png,165,tbd,283.949843560184,289.654019116632,5.66109825541882,animal,0.684210385338702,0,2,1
35,3,tool,0,0,animals,2,t_327.png,327,tbd,292.222729160727,299.728248415898,7.44775913528657,tool,0.713455573951251,0,1,1
36,3,animal,0,0,animals,2,a_133.png,133,tbd,302.280299020616,307.183779730806,4.84582474369157,animal,0.608195218292167,0,2,1
37,3,animal,0,0,animals,2,a_068.png,68,tbd,309.735897690452,317.04124579996,7.25570450067452,animal,0.816312641664808,0,2,1
38,3,tool,0,0,animals,2,t_296.png,296,tbd,319.609979578649,324.179953329472,4.51083052331658,tool,1.09107616172241,0,1,1
39,3,tool,0,0,animals,2,t_283.png,283,tbd,326.731964483447,331.035147292417,4.24479921236441,tool,0.775053899958039,0,1,1
40,3,tool,0,0,animals,2,t_252.png,252,tbd,333.587152352376,339.324674371022,5.6959718207932,tool,0.843894805053424,0,1,1
41,3,animal,0,0,animals,2,a_141.png,141,tbd,341.893405263071,347.630872435562,5.67871050458794,animal,0.700087545347742,0,2,1
42,3,tool,0,0,animals,2,t_256.png,256,tbd,350.199663626307,355.103169033305,4.84313609467116,tool,0.778142925209977,0,1,1
43,3,tool,0,0,animals,2,t_246.png,246,tbd,357.655246900732,361.758239319774,4.05870284505388,tool,0.651246242536217,0,1,1
44,3,animal,0,0,animals,2,a_022.png,22,tbd,364.310254964079,371.398835673885,7.02332441807175,animal,1.0554598384806,0,2,1
45,3,animal,0,0,animals,2,a_062.png,62,tbd,373.950819244415,379.771760981761,5.76722552121195,animal,0.695705305493902,0,2,1
46,3,animal,0,0,animals,2,a_082.png,82,tbd,382.340453064542,390.162878855449,7.76308414939298,animal,0.878096674826338,0,2,1
47,3,tool,0,0,animals,2,t_237.png,237,tbd,392.73164791529,399.386514854027,6.5961311865818,tool,0.785881044122107,0,1,1
48,3,animal,0,0,animals,2,a_054.png,54,tbd,401.93850227341,409.760992532605,7.76242861722172,animal,0.789886417120215,0,2,1
49,3,animal,0,0,animals,2,a_126.png,126,tbd,412.312991819284,417.950492733386,5.57159705759199,animal,0.688768068740501,0,2,1
50,3,tool,0,0,animals,2,t_290.png,290,tbd,420.502195337649,426.823782720083,6.27284506517519,tool,1.05790738823634,0,1,1
51,3,animal,0,0,animals,2,a_105.png,105,tbd,429.392540233364,434.262674802094,4.81655238484756,animal,1.14747051776521,0,2,1
52,3,animal,0,0,animals,2,a_042.png,42,tbd,436.831426542096,442.95259164121,6.07081455033079,animal,0.989797123731478,0,2,1
53,3,tool,0,0,animals,2,t_350.png,350,tbd,445.504622039452,453.327058093966,7.76669128677968,tool,0.850881756159652,0,1,1
54,3,tool,0,0,animals,2,t_301.png,301,tbd,455.895755629289,462.900918224083,6.94502345904027,tool,1.18648281228434,0,1,1
55,3,tool,0,0,animals,2,t_253.png,253,tbd,465.452955037079,470.973652564704,5.45705963919575,tool,1.14513041515511,0,1,1
56,3,animal,0,0,animals,2,a_153.png,153,tbd,473.542389230032,478.695955897939,5.09307942578915,animal,0.765354148978986,0,2,1
57,3,tool,0,0,animals,2,t_287.png,287,tbd,481.264852611404,485.434504918855,4.11003526654833,tool,0.678855027158534,0,1,1
58,3,animal,0,0,animals,2,a_121.png,121,tbd,487.98655327841,493.90758026785,5.87094966590109,animal,0.897434915875237,0,2,1
59,3,tool,0,0,animals,2,t_196.png,196,tbd,496.476283255714,504.26532602032,7.73060986835283,tool,1.00706371966498,0,1,1
60,3,tool,0,0,animals,2,t_213.png,213,tbd,506.817312477489,513.388927122632,6.52628302926114,tool,0.696843283024464,0,1,1
