trial,phase,object,toShock,seenBefore,shockedCategory,responseSide,filename,num,name,onsetFixationCross,onsetStimulus,interTrialTime,response,reactionTime,wasShocked,buttonPressed,isResponseCorrect
1,3,tool,0,0,animals,2,t_282.png,282,tbd,0.0196749792780793,7.22477907180837,7.11260964636152,tool,0.845312795956033,0,1,1
2,3,animal,0,0,animals,2,a_098.png,98,tbd,9.79353267805845,17.1823052653308,7.33271712181898,animal,0.685114954557775,0,2,1
3,3,tool,0,0,animals,2,t_324.png,324,tbd,19.7675449063527,24.6545369402888,4.83240512086673,tool,0.727159298563038,0,1,1
4,3,animal,0,0,animals,2,a_150.png,150,tbd,27.2230650707224,34.1279117102827,6.8422095648884,animal,0.718103381522724,0,2,1
5,3,tool,0,0,animals,2,t_213.png,213,tbd,36.7134329555252,41.5335635518877,4.76574804652268,tool,0.625648995472602,0,1,1
6,3,tool,0,0,animals,2,t_332.png,332,tbd,44.085551443548,49.8897653075201,5.7506652103883,tool,0.618782406915216,0,1,1
7,3,animal,0,0,animals,2,a_001.png,1,tbd,52.4750960369233,60.0305610030168,7.49870201979799,animal,1.2663935339383,0,2,1
8,3,animal,0,0,animals,2,a_176.png,176,tbd,62.5992424441761,68.336801423101,5.67428884221237,animal,0.763385532593929,0,2,1
9,3,tool,0,0,animals,2,t_198.png,198,tbd,70.9053436658187,76.242565040413,5.28968389271756,tool,0.656896479717489,0,1,1
10,3,tool,0,0,animals,2,t_360.png,360,tbd,78.8112291619509,85.8830151453089,7.0206768104956,tool,0.550795835395547,0,1,1
11,3,animal,0,0,animals,2,a_037.png,37,tbd,88.4516744558405,92.7380486283073,4.22686470726994,animal,0.655997142321212,0,2,1
12,3,animal,0,0,animals,2,a_018.png,18,tbd,95.2900278601564,100.977512605258,5.63801740572176,animal,0.702752102708928,0,2,1
13,3,tool,0,0,animals,2,t_273.png,273,tbd,103.529470027213,109.317013434516,5.73407069395413,tool,0.684577404816082,0,1,1
14,3,tool,0,0,animals,2,t_331.png,331,tbd,111.885634256998,117.206207626284,5.26515285455618,tool,0.713521058633887,0,1,1
15,3,animal,0,0,animals,2,a_019.png,19,tbd,119.774822034092,126.01266662641,6.18458547848198,animal,0.83152926364437,0,2,1
16,3,animal,0,0,animals,2,a_146.png,146,tbd,128.581324654006,135.702991148011,7.06748352341142,animal,0.842545505280214,0,2,1
17,3,animal,0,0,animals,2,a_094.png,94,tbd,138.271843860985,142.558179545404,4.23002282628431,animal,0.780576540117636,0,2,1
18,3,tool,0,0,animals,2,t_200.png,200,tbd,145.126890814801,149.663474506581,4.47737677335024,tool,0.719680108569264,0,1,1
19,3,animal,0,0,animals,2,a_178.png,178,tbd,152.215461756773,159.387344890381,7.09743332634234,animal,0.821972681241732,0,2,1
20,3,tool,0,0,animals,2,t_188.png,188,tbd,161.95604525483,168.394016152092,6.38231875580039,tool,0.990620894386211,0,1,1
21,3,tool,0,0,animals,2,t_189.png,189,tbd,170.945938293336,178.718112781469,7.727022592098,tool,1.43592633072694,0,1,1
22,3,animal,0,0,animals,2,a_051.png,51,tbd,181.286950740692,189.309478116118,7.94925015713903,animal,0.74590201590263,0,2,1
23,3,tool,0,0,animals,2,t_269.png,269,tbd,191.878150255999,197.415409733761,5.47742318057122,tool,1.00646289581618,0,1,1
24,3,animal,0,0,animals,2,a_085.png,85,tbd,199.984053649073,205.588158206988,5.5507207455852,animal,0.780822222160168,0,2,1
25,3,tool,0,0,animals,2,t_231.png,231,tbd,208.156830988337,215.828981453513,7.62344080594522,tool,0.705313803059198,0,1,1
26,3,animal,0,0,animals,2,a_144.png,144,tbd,218.381053056678,225.019171106579,6.56988649572828,animal,1.88350224118585,0,2,1
27,3,tool,0,0,animals,2,t_335.png,335,tbd,227.587818229228,235.426713032091,7.79366361046006,tool,0.598300029790607,0,1,1
28,3,tool,0,0,animals,2,t_344.png,344,tbd,237.995573442675,244.666918545439,6.60912339724287,tool,0.676369187040564,0,1,1
29,3,animal,0,0,animals,2,a_029.png,29,tbd,247.218958395965,252.372573818895,5.10817074962278,animal,0.770976017193789,0,2,1
30,3,animal,0,0,animals,2,a_046.png,46,tbd,254.924705399269,259.194473261813,4.21258520722265,animal,0.90033146105543,0,2,1
31,3,tool,0,0,animals,2,t_201.png,201,tbd,261.763109158782,266.733188550003,4.9130371845769,tool,0.679879938516478,0,1,1
32,3,tool,0,0,animals,2,t_250.png,250,tbd,269.302020736019,275.389704207743,6.04516093075239,tool,0.815637548485938,0,1,1
33,3,tool,0,0,animals,2,t_236.png,236,tbd,277.958410986868,282.778484813359,4.76732578134695,tool,0.92513315940505,0,1,1
34,3,animal,0,0,animals,2,a_108.png,108,tbd,285.330558982394,292.252258576121,6.86192600277521,animal,0.802703319107877,0,2,1
35,3,animal,0,0,animals,2,a_179.png,179,tbd,294.804211507804,300.074454377011,5.2094010913569,animal,0.695742146171597,0,2,1
36,3,animal,0,0,animals,2,a_022.png,22,tbd,302.62665940541,309.865248099995,7.18975872220761,animal,0.750286125341972,0,2,1
37,3,tool,0,0,animals,2,t_300.png,300,tbd,312.433903882456,317.00388205011,4.52139168897587,tool,1.3579357532426,0,1,1
38,3,tool,0,0,animals,2,t_291.png,291,tbd,319.555819907307,327.19469104002,7.5847428119428,tool,0.556444277222909,0,1,1
39,3,tool,0,0,animals,2,t_207.png,207,tbd,329.746673479206,334.716899125012,4.91968683689157,tool,0.580507005043728,0,1,1
40,3,animal,0,0,animals,2,a_168.png,168,tbd,337.268939617004,343.756956523521,6.43359038974835,animal,0.658756735387215,0,2,1
41,3,animal,0,0,animals,2,a_151.png,151,tbd,346.308974564152,353.680991379581,7.32761880010334,animal,0.750048461643473,0,2,1
42,3,animal,0,0,animals,2,a_145.png,145,tbd,356.232955536944,363.104610725085,6.83040177840291,animal,0.676780367690299,0,2,1
43,3,tool,0,0,animals,2,t_306.png,306,tbd,365.656558204294,371.160492805403,5.45965422797864,tool,0.796120259173222,0,1,1
44,3,tool,0,0,animals,2,t_241.png,241,tbd,373.712578841586,381.318067365572,7.55562232981651,tool,0.622950021082943,0,1,1
45,3,animal,0,0,animals,2,a_066.png,66,tbd,383.87000522277,391.225414766074,7.29646609440913,animal,0.660926178378304,0,2,1
46,3,animal,0,0,animals,2,a_041.png,41,tbd,393.777377961236,398.11379750149,4.26994793229321,animal,1.13181269604684,0,2,1
47,3,animal,0,0,animals,2,a_109.png,109,tbd,400.665805599375,406.169778047064,5.44632994955293,animal,0.98609854870665,0,2,1
48,3,tool,0,0,animals,2,t_296.png,296,tbd,408.721779409541,414.742798053473,5.96368066611866,tool,1.50040022636858,0,1,1
49,3,animal,0,0,animals,2,a_131.png,131,tbd,417.294759003499,425.067067558333,7.71469039463931,animal,0.673459490586083,0,2,1
50,3,tool,0,0,animals,2,t_235.png,235,tbd,427.63576247031,433.273139625279,5.58536976922683,tool,0.855695588462368,0,1,1
51,3,tool,0,0,animals,2,t_242.png,242,tbd,435.825124309602,441.996276491025,6.11301432407054,tool,0.668786079316305,0,1,1
52,3,animal,0,0,animals,2,a_113.png,113,tbd,444.564979310312,451.453252786556,6.84335757498668,animal,0.712145110906022,0,2,1
53,3,animal,0,0,animals,2,a_174.png,174,tbd,454.00525735637,461.760871078771,7.69805205751512,animal,0.577910344716202,0,2,1
54,3,tool,0,0,animals,2,t_252.png,252,tbd,464.312860574099,471.034391526028,6.6773480531087,tool,1.04073008818659,0,1,1
55,3,animal,0,0,animals,2,a_124.png,124,tbd,473.586379096954,479.574178064897,5.92505612091207,animal,1.07524745287174,0,2,1
56,3,tool,0,0,animals,2,t_310.png,310,tbd,482.126029003251,489.431346351643,7.24753093784085,tool,0.610463856734441,0,1,1
57,3,tool,0,0,animals,2,t_311.png,311,tbd,491.983331035966,496.169630830279,4.13013695945883,tool,0.590309910955511,0,1,1
58,3,animal,0,0,animals,2,a_082.png,82,tbd,498.72164887091,505.893473310244,7.11706351576184,animal,0.794850474311716,0,2,1
59,3,tool,0,0,animals,2,t_340.png,340,tbd,508.462187466244,515.200207339548,6.7102148317615,tool,0.627437086051941,0,1,1
60,3,animal,0,0,animals,2,a_040.png,40,tbd,517.752402425202,525.124490122786,7.31789202060221,animal,0.68450171165432,0,2,1
