trial,phase,object,toShock,seenBefore,shockedCategory,responseSide,filename,num,name,onsetFixationCross,onsetStimulus,interTrialTime,response,reactionTime,wasShocked,buttonPressed,isResponseCorrect
1,1,tool,0,0,animals,1,t_208.png,208,tbd,0.0185000101027981,5.47293131310653,5.39017783174824,tool,1.20984506074819,0,2,1
2,1,animal,0,0,animals,1,a_081.png,81,tbd,8.04167551865066,15.9814294693697,7.8911532167579,animal,0.522736380762581,0,1,1
3,1,tool,0,0,animals,1,t_274.png,274,tbd,18.5334949168519,23.0371421942546,4.45744295175595,tool,0.846268526784115,0,2,1
4,1,tool,0,0,animals,1,t_254.png,254,tbd,25.5892067492969,32.111161496332,6.47364881275603,tool,0.759567092045472,0,2,1
5,1,tool,0,0,animals,1,t_194.png,194,tbd,34.6632247227353,42.2860692228405,7.57028791470624,tool,0.820000951776819,0,2,1
6,1,animal,0,0,animals,1,a_058.png,58,tbd,44.8381420552178,49.191663048523,4.31158163012631,animal,1.16983337962665,0,1,1
7,1,animal,0,0,animals,1,a_121.png,121,tbd,51.7270309245068,56.9812966118334,5.20938847797788,animal,0.836243097408442,0,1,1
8,1,tool,0,0,animals,1,t_216.png,216,tbd,59.5333707231366,64.487382678808,4.90239180304277,tool,0.821470759025033,0,2,1
9,1,animal,0,0,animals,1,a_144.png,144,tbd,67.0227585154025,74.4287693077695,7.36341045593821,,2.50302762543834,0,,0
10,1,animal,0,0,animals,1,a_044.png,44,tbd,76.9474755063657,82.9356453002401,5.948921776735,animal,0.873778883276827,0,1,1
11,1,tool,0,0,animals,1,t_256.png,256,tbd,85.4710372809677,91.6593822387604,6.13972044054255,tool,0.759413271352969,0,2,1
12,1,animal,0,0,animals,1,a_100.png,100,tbd,94.2114448894463,100.349749692978,6.08519248924537,animal,0.847344074492867,0,1,1
13,1,animal,0,0,animals,1,a_049.png,49,tbd,102.901819893736,107.488867502809,4.5414357878818,animal,0.709503426398442,0,1,1
14,1,tool,0,0,animals,1,t_309.png,309,tbd,110.040941038395,117.847251210047,7.75416674986533,tool,0.818440319151705,0,2,1
15,1,tool,0,0,animals,1,t_272.png,272,tbd,120.399329235906,127.821996376671,7.37240293937772,tool,0.803045679540446,0,2,1
16,1,tool,0,0,animals,1,t_222.png,222,tbd,130.357383291408,135.094559178742,4.68781270887413,tool,1.13695509182435,0,2,1
17,1,animal,0,0,animals,1,a_120.png,120,tbd,137.629952306894,143.901681966201,6.22022667343627,animal,0.820902275316257,0,1,1
18,1,animal,0,0,animals,1,a_007.png,7,tbd,146.437077224025,152.775550460077,6.29228497744409,animal,0.875356206084689,0,1,1
19,1,animal,0,0,animals,1,a_154.png,154,tbd,155.327612403544,159.681137040385,4.31809352326908,animal,0.709001872604858,0,1,1
20,1,tool,0,0,animals,1,t_335.png,335,tbd,162.233204683289,167.804377831077,5.5283667904151,tool,0.796040854742387,0,2,1
21,1,tool,0,0,animals,1,t_341.png,341,tbd,170.356443924036,177.645686278785,7.2419443008483,tool,0.706103463573527,0,2,1
22,1,animal,0,0,animals,1,a_020.png,20,tbd,180.181070249188,187.00325827469,6.77133627298748,animal,0.783859198210848,0,1,1
23,1,tool,0,0,animals,1,t_347.png,347,tbd,189.555326682546,195.960514286924,6.36003253905452,tool,0.940875484428034,0,2,1
24,1,tool,0,0,animals,1,t_325.png,325,tbd,198.512574738179,205.901891018846,7.34282910150861,tool,1.03585648736953,0,2,1
25,1,tool,0,0,animals,1,t_281.png,281,tbd,208.470649127396,214.625618552651,6.09996270504828,tool,0.861424285509202,0,2,1
26,1,animal,0,0,animals,1,a_060.png,60,tbd,217.177689394875,223.299312832782,6.08118469376137,animal,0.794965245291678,0,1,1
27,1,animal,0,0,animals,1,a_162.png,162,tbd,225.851375212447,230.371702572542,4.47826014212735,animal,0.73387912459475,0,1,1
28,1,tool,0,0,animals,1,t_239.png,239,tbd,232.923780339406,238.228074222438,5.25605712426285,tool,0.763789724878734,0,2,1
29,1,animal,0,0,animals,1,a_138.png,138,tbd,240.780140183897,245.984351152445,5.15620247883239,animal,0.909768547309795,0,1,1
30,1,animal,0,0,animals,1,a_097.png,97,tbd,248.53641789088,256.39278612817,7.81412630085663,animal,0.82670383462937,0,1,1
31,1,tool,0,0,animals,1,t_312.png,312,tbd,258.944857998345,265.233270742412,6.23916327638242,tool,0.705519789913524,0,2,1
32,1,tool,0,0,animals,1,t_352.png,352,tbd,267.785347234361,274.524135125444,6.68495726418667,tool,0.942955829190396,0,2,1
33,1,tool,0,0,animals,1,t_226.png,226,tbd,277.076197501099,285.099366138727,7.96822777562881,tool,0.744110345556692,0,2,1
34,1,animal,0,0,animals,1,a_163.png,163,tbd,287.65142306592,292.355222335031,4.65619785570423,animal,0.863522563298829,0,1,1
35,1,tool,0,0,animals,1,t_320.png,320,tbd,294.923984774288,299.627778965383,4.65376838986639,tool,0.689212128803774,0,2,1
36,1,tool,0,0,animals,1,t_302.png,302,tbd,302.163177028024,309.452407728913,7.24713253839587,tool,0.776904704554909,0,2,1
37,1,tool,0,0,animals,1,t_304.png,304,tbd,312.004482399896,317.992669768377,5.94045586012448,tool,0.832944733407203,0,2,1
38,1,animal,0,0,animals,1,a_082.png,82,tbd,320.544728932686,327.583768684744,6.98294480538984,animal,0.942207700913059,0,1,1
39,1,tool,0,0,animals,1,t_245.png,245,tbd,330.135838580803,337.958833946845,7.77711501493266,tool,0.639470462187091,0,2,1
40,1,animal,0,0,animals,1,a_012.png,12,tbd,340.51090858816,347.533265243434,6.97160009623565,animal,0.880367736463086,0,1,1
41,1,animal,0,0,animals,1,a_092.png,92,tbd,350.085322700636,354.989281487473,4.8605268101777,animal,1.07061778289062,0,1,1
42,1,animal,0,0,animals,1,a_057.png,57,tbd,357.55803470323,362.295200663855,4.68546602534144,animal,0.867897893453119,0,1,1
43,1,tool,0,0,animals,1,t_355.png,355,tbd,364.847274631629,371.23577255135,6.34749015345592,tool,0.660693636418728,0,2,1
44,1,animal,0,0,animals,1,a_040.png,40,tbd,373.787850047196,378.408253450854,4.5707622338988,animal,0.948452818945952,0,1,1
45,1,animal,0,0,animals,1,a_031.png,31,tbd,380.960317750914,387.031820798205,6.00390343445459,animal,0.683171034310362,0,1,1
46,1,animal,0,0,animals,1,a_091.png,91,tbd,389.617312764465,396.105888899116,6.42973421849085,animal,0.71545118416725,0,1,1
47,1,tool,0,0,animals,1,t_308.png,308,tbd,398.6579825848,404.446006566704,5.72708596230779,tool,0.684420769304779,0,2,1
48,1,animal,0,0,animals,1,a_110.png,110,tbd,406.998081709966,413.119699633658,6.05786134883138,animal,0.642178018610139,0,1,1
49,1,animal,0,0,animals,1,a_098.png,98,tbd,415.671769065457,420.909320099005,5.1973629085275,animal,0.742837107995001,0,1,1
50,1,tool,0,0,animals,1,t_197.png,197,tbd,423.461404429685,431.384473885219,7.86791342384771,tool,0.653047150904968,0,2,1
51,1,animal,0,0,animals,1,a_052.png,52,tbd,433.936552277513,441.409264160635,7.41910815366326,animal,0.786612743040678,0,1,1
52,1,animal,0,0,animals,1,a_079.png,79,tbd,443.961347343891,450.616726781524,6.6029773305568,animal,0.618513773590166,0,1,1
53,1,tool,0,0,animals,1,t_243.png,243,tbd,453.168796603815,458.022721947746,4.80586002759632,tool,0.665806785667883,0,2,1
54,1,animal,0,0,animals,1,a_134.png,134,tbd,460.574800224576,467.697217618001,7.07595325202073,animal,0.656557466183585,0,1,1
55,1,tool,0,0,animals,1,t_323.png,323,tbd,470.249303144217,474.969789388588,4.66525706899802,tool,0.635245617895635,0,2,1
56,1,animal,0,0,animals,1,a_016.png,16,tbd,477.53853300238,482.442503323604,4.85147370701724,animal,0.640837092600123,0,1,1
57,1,tool,0,0,animals,1,t_213.png,213,tbd,484.994402461823,492.634090668542,7.59088680235456,tool,0.718561526833582,0,2,1
58,1,animal,0,0,animals,1,a_001.png,1,tbd,495.186159524623,502.141791962638,6.90951177481651,animal,1.15526360544391,0,1,1
59,1,tool,0,0,animals,1,t_345.png,345,tbd,504.69385152145,510.36511360389,5.61840122433708,tool,0.742153869765389,0,2,1
60,1,tool,0,0,animals,1,t_217.png,217,tbd,512.917188619662,520.790222761607,7.81688642328761,tool,0.649386764313022,0,2,1
