trial,phase,object,toShock,seenBefore,shockedCategory,responseSide,filename,num,name,onsetFixationCross,onsetStimulus,interTrialTime,response,reactionTime,wasShocked,buttonPressed,isResponseCorrect
1,2,animal,1,0,animals,2,a_098.png,98,tbd,0.0197265447604877,7.90880645079596,7.80505164814663,1,1.58988076960304,1,1,1
2,2,animal,1,0,animals,2,a_028.png,28,tbd,12.6792432186303,19.6676918486337,6.93940923314405,1,1.42853621130052,1,1,1
3,2,tool,0,0,animals,2,t_231.png,231,tbd,24.4380920523654,31.5099196673727,7.01612562484825,0,0.915843335656973,0,2,1
4,2,tool,0,0,animals,2,t_251.png,251,tbd,36.0801872139709,45.8706947878745,9.74766759617775,0,1.05373747423801,0,2,1
5,2,animal,1,0,animals,2,a_108.png,108,tbd,50.4242910278008,56.8456496600738,6.37329234702752,1,0.752471714789863,1,1,1
6,2,animal,1,0,animals,2,a_179.png,179,tbd,61.5993718216378,68.9214287641371,7.27688129703508,1,0.965042581796297,1,1,1
7,2,tool,0,0,animals,2,t_268.png,268,tbd,73.6917866304866,81.4642087649845,7.71886572431823,0,0.952900733602291,0,2,1
8,2,animal,1,0,animals,2,a_084.png,84,tbd,86.0343755999311,94.6574122038037,8.57535733646278,1,0.879315796475566,1,1,1
9,2,tool,0,0,animals,2,t_258.png,258,tbd,99.4278149734382,107.166704938583,7.70282171108815,0,0.976612233844207,0,2,1
10,2,animal,1,0,animals,2,a_059.png,59,tbd,111.73704817929,121.51091716177,9.72460959927694,1,0.875080454508861,1,1,1
11,2,tool,0,0,animals,2,t_204.png,204,tbd,126.281285933201,135.221264353968,8.87178108937728,0,1.36139746143454,0,2,1
12,2,animal,1,0,animals,2,a_105.png,105,tbd,139.79148314843,146.663167842697,6.82235805336734,1,0.774997768316098,1,1,1
13,2,animal,0,0,animals,2,a_127.png,127,tbd,151.433486258302,160.907243816488,9.42501344599411,1,1.03860667096887,0,1,0
14,2,tool,0,0,animals,2,t_190.png,190,tbd,165.477434386026,173.950167828581,8.41708915761266,1,1.51124838253236,0,1,0
15,2,tool,0,0,animals,2,t_263.png,263,tbd,178.520565915445,187.14356980407,8.5753141768441,0,1.10752166648672,0,2,1
16,2,animal,0,0,animals,2,a_023.png,23,tbd,191.713848255753,201.387454618165,9.63060956968682,1,1.05230185207984,0,1,0
17,2,animal,0,0,animals,2,a_115.png,115,tbd,205.94124917535,213.163202161635,7.17074518155785,0,1.08510241863041,0,2,1
18,2,animal,0,0,animals,2,a_062.png,62,tbd,217.716715009748,225.07214150756,7.31113793252475,0,1.00071599635703,0,2,1
19,2,tool,0,0,animals,2,t_282.png,282,tbd,229.642366075303,237.898252254454,8.20745682290533,0,1.05924101326309,0,2,1
20,2,tool,0,0,animals,2,t_185.png,185,tbd,242.468657397549,249.92397478038,7.40912358808664,0,1.05102563657783,0,2,1
21,2,animal,1,0,animals,2,a_045.png,45,tbd,254.477670769749,264.485047417216,9.95001264769986,0,1.16169266846191,1,2,0
22,2,animal,1,0,animals,2,a_074.png,74,tbd,269.255475525133,276.727448819227,7.41497438372234,1,0.826800122020359,1,1,1
23,2,animal,1,0,animals,2,a_083.png,83,tbd,281.481357008688,290.721539546954,9.17812503738562,1,0.733401289762696,1,1,1
24,2,tool,0,0,animals,2,t_227.png,227,tbd,295.508578342109,303.19752591175,7.63985535622006,0,1.12802194039978,0,2,1
25,2,animal,1,0,animals,2,a_049.png,49,tbd,307.767741178097,315.640203340667,7.81813143972555,1,0.692918412667495,1,1,1
26,2,tool,0,0,animals,2,t_229.png,229,tbd,320.410597129645,329.734146144147,9.26917767654789,0,1.07166992173734,0,2,1
27,2,tool,0,0,animals,2,t_321.png,321,tbd,334.304348260244,343.894746590868,9.54057528864823,0,1.70175024729906,0,2,1
28,2,tool,0,0,animals,2,t_302.png,302,tbd,348.448360150633,356.037223751133,7.53265794725743,0,0.991827711881342,0,2,1
29,2,animal,1,0,animals,2,a_143.png,143,tbd,360.607404377803,366.878728626987,6.21402877574036,1,1.27680255962696,1,1,1
30,2,animal,1,0,animals,2,a_008.png,8,tbd,371.649102530228,381.55644556438,9.86034406398802,1,0.715789900747041,1,1,1
31,2,animal,1,0,animals,2,a_080.png,80,tbd,386.326783865727,395.616895969983,9.25048428330792,1,1.43902978820915,1,1,1
32,2,tool,0,0,animals,2,t_226.png,226,tbd,400.387370584875,410.344555623615,9.90162651862316,0,0.983028913233284,0,2,1
33,2,tool,0,0,animals,2,t_351.png,351,tbd,414.914947937195,421.019440767424,6.06459885818946,0,1.25666279494544,0,2,1
34,2,tool,0,0,animals,2,t_294.png,294,tbd,425.572977991607,433.778855703284,8.15768605496418,0,1.13784645836131,0,2,1
35,2,animal,1,0,animals,2,a_006.png,6,tbd,438.349238073999,447.372602535997,8.97962565656042,1,0.96672741718794,1,1,1
36,2,animal,0,0,animals,2,a_101.png,101,tbd,452.142947252101,462.000222803032,9.80371130331833,1,0.908797048068664,0,1,0
37,2,tool,0,0,animals,2,t_349.png,349,tbd,466.570483614141,473.025230725256,6.40566527692389,0,1.74035648782956,0,2,1
38,2,animal,0,0,animals,2,a_148.png,148,tbd,477.578722083937,483.916766199491,6.2910342842308,1,1.46530719043949,0,1,0
39,2,tool,0,0,animals,2,t_279.png,279,tbd,488.486927902635,498.294011524096,9.76020496312368,0,1.21992934212903,0,2,1
40,2,tool,0,0,animals,2,t_299.png,299,tbd,502.847754020437,510.636782993319,7.72854724426246,0,0.857527119031147,0,2,1
41,2,tool,0,0,animals,2,t_255.png,255,tbd,515.190350366851,522.345626887691,7.11028939162129,0,0.763237598046544,0,2,1
42,2,animal,1,0,animals,2,a_046.png,46,tbd,526.915831248956,535.505493165711,8.54140544346489,1,0.994993393454934,1,1,1
43,2,animal,0,0,animals,2,a_020.png,20,tbd,540.27584525878,549.265820600463,8.94409404512122,1,1.54534152220367,0,1,0
44,2,animal,1,0,animals,2,a_167.png,167,tbd,553.836062808779,563.076233479751,9.17688138170099,1,1.24156342397691,1,1,1
45,2,tool,0,0,animals,2,t_230.png,230,tbd,567.84658589356,576.452858497552,8.56618336969894,0,0.976561236544512,0,2,1
46,2,tool,0,0,animals,2,t_283.png,283,tbd,581.022872661331,589.863027872743,8.79591461951337,0,1.10802650769983,0,2,1
47,2,tool,0,0,animals,2,t_360.png,360,tbd,594.433233516957,604.207179797231,9.71082046439812,0,0.785737671816605,0,2,1
48,2,animal,1,0,animals,2,a_013.png,13,tbd,608.760708361493,615.965849659304,7.14639467767932,1,0.916432851638092,1,1,1
49,2,tool,0,0,animals,2,t_203.png,203,tbd,620.736340952557,627.541305780454,6.76731345094019,0,1.12650677527563,0,2,1
50,2,tool,0,0,animals,2,t_269.png,269,tbd,632.11162496583,640.000762283926,7.83233760554309,0,0.875644632207695,0,2,1
51,2,animal,0,0,animals,2,a_053.png,53,tbd,644.570961192647,651.62612199131,7.0002054921551,1,1.71285707478091,0,1,0
52,2,animal,1,0,animals,2,a_093.png,93,tbd,656.196349124952,662.684354174649,6.44918564906089,1,1.54313195985742,1,1,1
53,2,tool,0,0,animals,2,t_218.png,218,tbd,667.438130220158,675.810988814581,8.30905566092527,0,1.58212051978626,0,2,1
54,2,tool,0,0,animals,2,t_273.png,273,tbd,680.381171044941,687.670019121731,7.22659479313507,0,1.04462563555353,0,2,1
55,2,animal,0,0,animals,2,a_154.png,154,tbd,692.240109300357,698.628143922073,6.33696502550032,1,0.889021320734173,0,1,0
56,2,animal,0,0,animals,2,a_176.png,176,tbd,703.198355018831,712.838800946935,9.58748149341085,1,1.57205993884054,0,1,0
57,2,tool,0,0,animals,2,t_237.png,237,tbd,717.392349076203,724.714415640832,7.2666951462089,0,0.851973865657783,0,2,1
58,2,tool,0,0,animals,2,t_334.png,334,tbd,729.267944525829,739.075141688456,9.74840077231831,0,1.2689024681531,0,2,1
59,2,tool,0,0,animals,2,t_235.png,235,tbd,743.628758455598,751.201021632467,7.5172752959868,0,0.790759462739516,0,2,1
60,2,animal,1,0,animals,2,a_005.png,5,tbd,755.754565271403,764.494325398056,8.69839786493941,1,1.40914087893543,1,1,1
