trial,phase,object,toShock,seenBefore,shockedCategory,responseSide,filename,num,name,onsetFixationCross,onsetStimulus,interTrialTime,response,reactionTime,wasShocked,buttonPressed,isResponseCorrect
1,2,tool,0,0,animals,2,t_206.png,206,tbd,0.0185498460850795,9.54190359198265,9.41597322549925,0,1.08910507392238,0,2,1
2,2,animal,1,0,animals,2,a_090.png,90,tbd,14.128962434756,20.9839096403794,6.79505748775051,0,1.33552897294794,1,2,0
3,2,tool,0,0,animals,2,t_278.png,278,tbd,25.7542158544993,34.5773004085722,8.76530701340138,0,0.562525388106678,0,2,1
4,2,tool,0,0,animals,2,t_345.png,345,tbd,39.1307761840339,48.6210510560531,9.42279751879084,0,0.833311900996705,0,2,1
5,2,tool,0,0,animals,2,t_251.png,251,tbd,53.1744950788752,59.4123213893695,6.19357572766865,1,1.37743059043987,0,1,0
6,2,animal,0,0,animals,2,a_149.png,149,tbd,63.9657679780612,71.6880552201392,7.66741129074862,1,1.85813316410395,0,1,0
7,2,tool,0,0,animals,2,t_293.png,293,tbd,76.2415560128329,86.2321469679491,9.93555972277919,1,3.12358908229862,0,1,0
8,2,tool,0,0,animals,2,t_307.png,307,tbd,90.7856185738724,99.2417856581878,8.39561186139001,0,1.31532403050505,0,2,1
9,2,animal,1,0,animals,2,a_135.png,135,tbd,103.81197390644,113.852573986431,9.98228873888732,1,2.35408726838887,1,1,1
10,2,animal,1,0,animals,2,a_130.png,130,tbd,118.606187292519,124.79401410015,6.13329369921257,0,1.31885979921253,1,2,0
11,2,animal,0,0,animals,2,a_065.png,65,tbd,129.54764729173,135.852164409449,6.24458648403456,0,3.03829411470724,0,2,1
12,2,tool,0,0,animals,2,t_334.png,334,tbd,140.405647241054,147.844365768655,7.37140472119991,0,1.36335839776621,0,2,1
13,2,animal,1,0,animals,2,a_070.png,70,tbd,152.414510076385,161.954763603574,9.47318095895102,1,2.15854392779966,1,1,1
14,2,animal,1,0,animals,2,a_139.png,139,tbd,166.708396153686,176.24870067754,9.47596722197268,0,1.79508717505541,1,2,0
15,2,tool,0,0,animals,2,t_343.png,343,tbd,181.002344132598,187.240159538146,6.19246271162871,0,1.71901105724237,0,2,1
16,2,tool,0,0,animals,2,t_336.png,336,tbd,191.79364493562,198.798734338545,6.94836684981769,0,1.86484868707157,0,2,1
17,2,animal,1,0,animals,2,a_128.png,128,tbd,203.368880891411,212.525617695062,9.08667675197065,1,1.83744070638204,1,1,1
18,2,animal,0,0,animals,2,a_013.png,13,tbd,217.279139592035,225.068114754736,7.72873719354546,0,2.26556379500926,0,2,1
19,2,tool,0,0,animals,2,t_346.png,346,tbd,229.638301399319,238.344647533242,8.64817375494951,0,2.23828507001599,0,2,1
20,2,tool,0,0,animals,2,t_319.png,319,tbd,242.898073274242,249.636219195903,6.68895631370547,1,1.61111270032916,0,1,0
21,2,animal,1,0,animals,2,a_180.png,180,tbd,254.189780607273,260.444317786888,6.18562246769489,0,1.96059219758536,1,2,0
22,2,tool,0,0,animals,2,t_290.png,290,tbd,265.197910245283,273.33695986632,8.09332414970389,1,1.92478580401485,0,1,0
23,2,tool,0,0,animals,2,t_341.png,341,tbd,277.873963398561,286.330054789715,8.40571812211941,0,1.12453428461913,0,2,1
24,2,tool,0,0,animals,2,t_338.png,338,tbd,290.883548526266,297.254670173837,6.33031248481279,1,2.42232721956043,0,1,0
25,2,animal,1,0,animals,2,a_074.png,74,tbd,301.808307919835,311.498658100136,9.63346904656271,0,1.24482034062385,1,2,0
26,2,tool,0,0,animals,2,t_333.png,333,tbd,316.252305083266,324.124659150218,7.81550147856086,1,1.68924183478748,0,1,0
27,2,tool,0,0,animals,2,t_248.png,248,tbd,328.678139736686,334.782566792373,6.05045986041641,0,1.1196652257704,0,2,1
28,2,tool,0,0,animals,2,t_208.png,208,tbd,339.336032304355,346.074270597333,6.67948939026943,1,2.08939148914897,0,1,0
29,2,animal,1,0,animals,2,a_163.png,163,tbd,350.627694734664,358.199803215794,7.51430607586403,0,2.75518950194692,1,2,0
30,2,animal,1,0,animals,2,a_173.png,173,tbd,362.953483555233,371.226182603391,8.20538090228721,0,1.3893205107729,1,2,0
31,2,animal,1,0,animals,2,a_072.png,72,tbd,375.979786287468,382.818074582835,6.76632768714638,0,1.15684371826455,1,2,0
32,2,tool,0,0,animals,2,t_246.png,246,tbd,387.571688851124,394.376626611139,6.75772172822987,0,1.69271570188357,0,2,1
33,2,tool,0,0,animals,2,t_221.png,221,tbd,398.930115857418,408.487066782911,9.50457459769838,0,1.43675606814895,0,2,1
34,2,animal,1,0,animals,2,a_064.png,64,tbd,413.040523314349,420.429232717076,7.33010640617594,0,0.903966656467674,1,2,0
35,2,animal,0,0,animals,2,a_154.png,154,tbd,425.182871681863,432.855059352152,7.61051744894057,0,1.78158973723657,0,2,1
36,2,tool,0,0,animals,2,t_184.png,184,tbd,437.425212319693,444.263478163699,6.78543090954839,1,0.642534663726565,0,1,0
37,2,animal,1,0,animals,2,a_136.png,136,tbd,448.816995313813,455.972164050228,7.09505873342364,0,0.951247620182585,1,2,0
38,2,animal,1,0,animals,2,a_161.png,161,tbd,460.725717379107,470.716372480971,9.9339078674341,0,0.966562656084079,1,2,0
39,2,tool,0,0,animals,2,t_329.png,329,tbd,475.486712051399,482.59181938334,7.04143694861011,1,0.92352564116527,0,1,0
40,2,tool,0,0,animals,2,t_203.png,203,tbd,487.145338457857,494.150528029883,6.94528475369472,1,2.41327922068785,0,1,0
41,2,tool,0,0,animals,2,t_281.png,281,tbd,498.703829546751,504.858318969113,6.08524367206345,1,1.15773247144716,0,1,0
42,2,animal,1,0,animals,2,a_028.png,28,tbd,509.428428958333,518.217988177167,8.74716750134714,1,0.925555564981551,1,1,1
43,2,animal,0,0,animals,2,a_071.png,71,tbd,522.971798413769,531.377939053587,8.35322871307945,1,1.0452540367819,0,1,0
44,2,animal,0,0,animals,2,a_127.png,127,tbd,535.94807245637,544.92120266689,8.91335766368168,1,1.7853179461863,0,1,0
45,2,tool,0,0,animals,2,t_199.png,199,tbd,549.474699610779,559.431950614756,9.91408391282764,0,1.66306450944376,0,2,1
46,2,animal,0,0,animals,2,a_158.png,158,tbd,563.985437295165,571.590930950891,7.54221943586641,0,1.3235258336058,0,2,1
47,2,animal,0,0,animals,2,a_118.png,118,tbd,576.144423404508,582.398933321755,6.19773124438642,1,1.43908299140458,0,1,0
48,2,animal,1,0,animals,2,a_119.png,119,tbd,586.952415511892,594.95805721831,7.96340493864491,0,1.1722517669491,1,2,0
49,2,tool,0,0,animals,2,t_302.png,302,tbd,599.711876756191,608.334815761294,8.55550927049655,0,1.80190950235738,0,2,1
50,2,animal,1,0,animals,2,a_003.png,3,tbd,612.871611458074,620.126842705494,7.20363788538264,1,1.62244229882526,1,1,1
51,2,tool,0,0,animals,2,t_315.png,315,tbd,624.880460181121,633.436697794784,8.50159630136688,0,2.42411563087353,0,2,1
52,2,tool,0,0,animals,2,t_294.png,294,tbd,637.990171645844,647.413712411583,9.35428198205465,1,0.690336819762706,0,1,0
53,2,animal,1,0,animals,2,a_026.png,26,tbd,651.967137511115,660.523387954128,8.5056217372399,1,1.70596457105648,1,1,1
54,2,tool,0,0,animals,2,t_351.png,351,tbd,665.277005750489,672.982594311327,7.64982115399614,0,2.1263826731406,0,2,1
55,2,animal,0,0,animals,2,a_116.png,116,tbd,677.536055012304,685.875491694814,8.2847839144915,1,2.54594762348597,0,1,0
56,2,animal,0,0,animals,2,a_054.png,54,tbd,690.44561419265,696.95022714561,6.44534942214178,0,2.73659849166415,0,2,1
57,2,animal,1,0,animals,2,a_031.png,31,tbd,701.520499746834,708.64208477447,7.04161731580741,0,2.68608100381744,1,2,0
58,2,tool,0,0,animals,2,t_352.png,352,tbd,713.44596186802,721.768459639722,8.2499234278322,1,1.17915331548329,0,1,0
59,2,tool,0,0,animals,2,t_238.png,238,tbd,726.338825895197,733.510679521301,7.10110703638947,0,1.62032641836777,0,2,1
60,2,animal,1,0,animals,2,a_110.png,110,tbd,738.064119695318,747.4709739677,9.3354888135222,0,1.77556282960086,1,2,0
