trial,phase,object,toShock,seenBefore,shockedCategory,responseSide,filename,num,name,onsetFixationCross,onsetStimulus,interTrialTime,response,reactionTime,wasShocked,buttonPressed,isResponseCorrect
1,1,animal,0,0,animals,2,a_065.png,65,tbd,0.0196364135226759,4.17262511200897,4.06940350770379,animal,0.740299721175688,0,2,1
2,1,tool,0,0,animals,2,t_243.png,243,tbd,6.75801512269391,14.0467717892279,7.24677662301876,tool,1.06263313961244,0,1,1
3,1,animal,0,0,animals,2,a_069.png,69,tbd,16.598809885174,23.0201726870364,6.37334682465689,animal,0.478623263457848,0,2,1
4,1,tool,0,0,animals,2,t_270.png,270,tbd,25.5888593172785,31.2763937164018,5.62872124967637,tool,0.869815869038575,0,1,1
5,1,tool,0,0,animals,2,t_272.png,272,tbd,33.8284289257062,39.7493802210374,5.88470795775657,tool,0.910228504570114,0,1,1
6,1,tool,0,0,animals,2,t_292.png,292,tbd,42.3181255462878,47.1215816238182,4.763758037326,tool,0.848379682382074,0,1,1
7,1,animal,0,0,animals,2,a_018.png,18,tbd,49.69033625046,55.7447818039436,6.0087345674675,tool,0.759557777790178,0,1,0
8,1,tool,0,0,animals,2,t_352.png,352,tbd,58.3134729245103,64.5680671720147,6.19773910715223,tool,1.19870773295042,0,1,1
9,1,tool,0,0,animals,2,t_264.png,264,tbd,67.1367573303723,72.7909279474588,5.61350546316637,tool,0.725233386194304,0,1,1
10,1,animal,0,0,animals,2,a_116.png,116,tbd,75.3429875328329,80.0796146931607,4.68852996952485,animal,0.562881069894502,0,2,1
11,1,tool,0,0,animals,2,t_290.png,290,tbd,82.6484815780168,88.3359502259009,5.63553446623955,tool,0.810002769339917,0,1,1
12,1,animal,0,0,animals,2,a_102.png,102,tbd,90.9046637981119,95.7247453168166,4.77398137863527,animal,0.901502513392188,0,2,1
13,1,tool,0,0,animals,2,t_233.png,233,tbd,98.2935403564152,104.915078152793,6.58219851636551,tool,0.8446023539218,0,1,1
14,1,tool,0,0,animals,2,t_184.png,184,tbd,107.483776329591,113.588297384744,6.06428549163919,tool,0.785968606920505,0,1,1
15,1,tool,0,0,animals,2,t_217.png,217,tbd,116.140285124864,123.211991501001,7.03233496298128,tool,0.760554630709521,0,1,1
16,1,animal,0,0,animals,2,a_047.png,47,tbd,125.780891742579,130.734322866716,4.90364690450486,animal,0.739569722059969,0,2,1
17,1,tool,0,0,animals,2,t_254.png,254,tbd,133.286535764735,140.708638508582,7.3720811894701,tool,0.898717226787994,0,1,1
18,1,tool,0,0,animals,2,t_348.png,348,tbd,143.277341175708,149.815478818389,6.48895975338013,tool,0.794298486976913,0,1,1
19,1,tool,0,0,animals,2,t_197.png,197,tbd,152.384204578633,158.105017122816,5.65963689399229,tool,0.952163682184619,0,1,1
20,1,animal,0,0,animals,2,a_089.png,89,tbd,160.69046005523,167.445429886637,6.701971960872,animal,0.877189950610045,0,2,1
21,1,tool,0,0,animals,2,t_345.png,345,tbd,170.014127101222,176.318790756377,6.26201621328782,tool,0.659231330908369,0,1,1
22,1,animal,0,0,animals,2,a_091.png,91,tbd,178.887485405059,186.909940896283,7.98130717258574,animal,0.690595313084486,0,2,1
23,1,tool,0,0,animals,2,t_339.png,339,tbd,189.478775707361,196.950913219182,7.42984734712711,tool,0.880109626326885,0,1,1
24,1,animal,0,0,animals,2,a_113.png,113,tbd,199.519648280821,204.389838337178,4.81670634812639,animal,0.920519054481701,0,2,1
25,1,animal,0,0,animals,2,a_099.png,99,tbd,206.941781174013,214.964363356648,7.97044874332197,animal,0.996505675866501,0,2,1
26,1,animal,0,0,animals,2,a_161.png,161,tbd,217.533197205514,221.736245368778,4.13533192505698,animal,0.760923799858574,0,2,1
27,1,tool,0,0,animals,2,t_189.png,189,tbd,224.30494579074,230.159204161675,5.78938539338709,tool,0.962383990528906,0,1,1
28,1,animal,0,0,animals,2,a_017.png,17,tbd,232.727935695199,240.250171801803,7.47860071680048,animal,0.563861244449072,0,2,1
29,1,animal,0,0,animals,2,a_147.png,147,tbd,242.818877676305,250.591251058664,7.71514118171824,animal,0.856297735168482,0,2,1
30,1,tool,0,0,animals,2,t_318.png,318,tbd,253.143309040352,257.479648434772,4.29586923843844,tool,1.07023302055677,0,1,1
31,1,tool,0,0,animals,2,t_303.png,303,tbd,260.031835032296,267.470422092709,7.39900117398241,tool,0.696902941643202,0,1,1
32,1,animal,0,0,animals,2,a_103.png,103,tbd,270.039333560111,276.110425402723,6.01388830689937,animal,0.890311652623495,0,2,1
33,1,tool,0,0,animals,2,t_342.png,342,tbd,278.662493006545,286.651558094498,7.93891421293884,tool,0.908735470347892,0,1,1
34,1,animal,0,0,animals,2,a_124.png,124,tbd,289.220416960907,294.874539467331,5.59079711025301,animal,1.01308942113246,0,2,1
35,1,animal,0,0,animals,2,a_054.png,54,tbd,297.443253360278,305.28219810743,7.79614023920841,animal,0.850086327936879,0,2,1
36,1,animal,0,0,animals,2,a_030.png,30,tbd,307.85111823475,312.654555388752,4.75645979916577,animal,0.818894261195965,0,2,1
37,1,tool,0,0,animals,2,t_205.png,205,tbd,315.239963360753,320.710645043935,5.42130887993551,tool,0.911204830270435,0,1,1
38,1,animal,0,0,animals,2,a_077.png,77,tbd,323.279344824423,330.634618330329,7.29566706316773,animal,1.00670160814116,0,2,1
39,1,animal,0,0,animals,2,a_073.png,73,tbd,333.203470461245,338.757348308915,5.53264801973717,animal,0.626390351404552,0,2,1
40,1,animal,0,0,animals,2,a_034.png,34,tbd,341.309583017101,346.413280738452,5.05099704409416,animal,0.555750107538188,0,2,1
41,1,tool,0,0,animals,2,t_211.png,211,tbd,348.981889108683,353.868834184268,4.82904073307129,tool,1.69360511611376,0,1,1
42,1,animal,0,0,animals,2,a_159.png,159,tbd,356.437629544602,364.410012100063,7.92176736558711,animal,0.822880389929196,0,2,1
43,1,tool,0,0,animals,2,t_195.png,195,tbd,366.962213772262,371.315333524188,4.30752811865287,tool,1.24085042789375,0,1,1
44,1,animal,0,0,animals,2,a_004.png,4,tbd,373.867373223824,378.103899351761,4.17457543652793,animal,0.720628875085822,0,2,1
45,1,animal,0,0,animals,2,a_110.png,110,tbd,380.672541700034,385.275826652061,4.54639483611283,animal,0.529030087218416,0,2,1
46,1,animal,0,0,animals,2,a_088.png,88,tbd,387.844527074023,395.233300675511,7.33030201174041,animal,0.883041490083997,0,2,1
47,1,tool,0,0,animals,2,t_333.png,333,tbd,397.802029001658,404.089981578658,6.24801649655504,tool,0.829779779629462,0,1,1
48,1,tool,0,0,animals,2,t_305.png,305,tbd,406.658721772103,413.096605775369,6.38833315778009,tool,0.579570337878977,0,1,1
49,1,tool,0,0,animals,2,t_186.png,186,tbd,415.665460151453,421.619847715552,5.90686267184967,tool,0.729728204998537,0,1,1
50,1,animal,0,0,animals,2,a_170.png,170,tbd,424.18854172276,428.358039434617,4.12489116206299,animal,1.04186440820558,0,2,1
51,1,tool,0,0,animals,2,t_315.png,315,tbd,430.926919790454,436.430762228676,5.45691955843593,tool,1.23754041433131,0,1,1
52,1,animal,0,0,animals,2,a_016.png,16,tbd,438.999665036161,446.671983957251,7.61786403103174,animal,0.81979457205307,0,2,1
53,1,animal,0,0,animals,2,a_129.png,129,tbd,449.224026864264,455.478565303398,6.20391604868191,animal,1.40563104968533,0,2,1
54,1,animal,0,0,animals,2,a_055.png,55,tbd,458.03066818837,462.08339394605,4.00306248670712,animal,0.60408817282223,0,2,1
55,1,tool,0,0,animals,2,t_325.png,325,tbd,464.635588562018,471.74077546873,7.06240615130782,tool,1.17818276223625,0,1,1
56,1,tool,0,0,animals,2,t_337.png,337,tbd,474.309557678822,480.330611866822,5.9720126814663,tool,0.867757694908505,0,1,1
57,1,tool,0,0,animals,2,t_286.png,286,tbd,482.899325759769,489.32071133401,6.38142454608737,tool,1.33408568389859,0,1,1
58,1,animal,0,0,animals,2,a_001.png,1,tbd,491.872747505531,497.660310065428,5.74120375786647,animal,0.713729164646793,0,2,1
59,1,animal,0,0,animals,2,a_097.png,97,tbd,500.22907046535,506.350190340443,6.06549880688628,animal,0.750385319668567,0,2,1
60,1,tool,0,0,animals,2,t_310.png,310,tbd,508.918944646346,515.90733329839,6.93119659521225,tool,1.10770930199942,0,1,1
