trial,phase,object,toShock,seenBefore,shockedCategory,responseSide,filename,num,name,onsetFixationCross,onsetStimulus,interTrialTime,response,reactionTime,wasShocked,buttonPressed,isResponseCorrect
1,1,animal,0,0,tools,2,a_059.png,59,tbd,0.0262599696411598,5.64697603590798,5.38152500786249,animal,1.45576107588704,0,2,1
2,1,animal,0,0,tools,2,a_144.png,144,tbd,8.26577248675244,13.7699193050983,5.44305360085295,animal,1.23619940892308,0,2,1
3,1,tool,0,0,tools,2,t_323.png,323,tbd,16.3386165196832,23.760778600014,7.35610800734266,tool,1.55974842342425,0,1,1
4,1,tool,0,0,tools,2,t_212.png,212,tbd,26.3127849429236,32.4506210279731,6.07178529282184,tool,0.964361017127885,0,1,1
5,1,tool,0,0,tools,2,t_198.png,198,tbd,35.0193073374746,42.5915884756575,7.52145531652843,tool,0.84388422122106,0,1,1
6,1,animal,0,0,tools,2,a_112.png,112,tbd,45.1436224020135,50.931203243963,5.72091432145023,animal,0.616635111909773,0,2,1
7,1,tool,0,0,tools,2,t_359.png,359,tbd,53.4998728751018,61.4891432352133,7.93569569874881,tool,0.628196745516789,0,1,1
8,1,animal,0,0,tools,2,a_164.png,164,tbd,64.0578516756195,71.7468293946097,7.62347030101239,animal,0.632977341652804,0,2,1
9,1,animal,0,0,tools,2,a_162.png,162,tbd,74.332232876282,78.6353338971262,4.25173393733981,animal,1.00885215386097,0,2,1
10,1,tool,0,0,tools,2,t_333.png,333,tbd,81.2040840334396,87.0750268612946,5.81942487305573,tool,0.723516155410607,0,1,1
11,1,tool,0,0,tools,2,t_353.png,353,tbd,89.627010752562,93.8968403638407,4.20573877230233,tool,0.862030600797425,0,1,1
12,1,tool,0,0,tools,2,t_208.png,208,tbd,96.4655776706443,100.985525634152,4.46292557757842,tool,0.955459582403819,0,1,1
13,1,animal,0,0,tools,2,a_105.png,105,tbd,103.537232728743,107.607156444477,4.01724650898178,animal,0.660340761897487,0,2,1
14,1,tool,0,0,tools,2,t_307.png,307,tbd,110.17584820652,116.997557790036,6.77138169787849,tool,0.702450741588564,0,1,1
15,1,animal,0,0,tools,2,a_130.png,130,tbd,119.549583697948,125.487215922085,5.87851228421561,animal,0.767187486459534,0,2,1
16,1,animal,0,0,tools,2,a_011.png,11,tbd,128.055967341349,135.761556068315,7.65957870833177,animal,0.687269582493627,0,2,1
17,1,animal,0,0,tools,2,a_120.png,120,tbd,138.313679801241,144.534912191135,6.17552477185821,animal,0.686261824488838,0,2,1
18,1,tool,0,0,tools,2,t_290.png,290,tbd,147.08696472028,152.224013394158,5.08253405839685,tool,0.66847627487914,0,1,1
19,1,tool,0,0,tools,2,t_350.png,350,tbd,154.776049886416,162.331614493904,7.49432249959735,tool,0.721487168416161,0,1,1
20,1,tool,0,0,tools,2,t_277.png,277,tbd,164.883641364029,169.236739947266,4.29719208445439,tool,0.792672024975673,0,1,1
21,1,animal,0,0,tools,2,a_003.png,3,tbd,171.805499064237,178.527129810414,6.66235981663716,animal,0.719763523757592,0,2,1
22,1,tool,0,0,tools,2,t_230.png,230,tbd,181.079149624309,188.86821580277,7.73528673588758,tool,0.730116617529802,0,1,1
23,1,animal,0,0,tools,2,a_029.png,29,tbd,191.436927771292,197.074363896369,5.58864068019616,animal,0.913372695830731,0,2,1
24,1,tool,0,0,tools,2,t_313.png,313,tbd,199.626423802483,204.346538421325,4.67225489887024,tool,0.736577558728186,0,1,1
25,1,tool,0,0,tools,2,t_327.png,327,tbd,206.89854540571,212.00224312706,5.04213428290849,tool,0.719361318621395,0,1,1
26,1,tool,0,0,tools,2,t_257.png,257,tbd,214.554328692194,220.959017300744,6.335513697415,tool,0.776823410626776,0,1,1
27,1,animal,0,0,tools,2,a_061.png,61,tbd,223.527725099675,230.399452131324,6.81042213429357,animal,0.707765686812991,0,2,1
28,1,tool,0,0,tools,2,t_349.png,349,tbd,232.951485095467,238.805712675577,5.79907461542305,tool,0.846900118266603,0,1,1
29,1,tool,0,0,tools,2,t_279.png,279,tbd,241.357786373414,248.096081370034,6.67705599578941,tool,0.780067031473664,0,1,1
30,1,tool,0,0,tools,2,t_235.png,235,tbd,250.664806168065,255.968654187124,5.25446424506594,tool,0.614825188796885,0,1,1
31,1,animal,0,0,tools,2,a_125.png,125,tbd,258.554077554537,264.475041037903,5.86298877288282,animal,0.808855168795844,0,2,1
32,1,tool,0,0,tools,2,t_211.png,211,tbd,267.043781231346,271.947347578516,4.84006497056325,tool,0.725995137466043,0,1,1
33,1,animal,0,0,tools,2,a_086.png,86,tbd,274.516081036466,279.953341204815,5.36301901116243,animal,0.713284621245293,0,2,1
34,1,animal,0,0,tools,2,a_171.png,171,tbd,282.522075624979,289.460323024116,6.91027084936152,animal,0.783668595647669,0,2,1
35,1,animal,0,0,tools,2,a_073.png,73,tbd,292.029225190123,297.416525001657,5.32020796485109,animal,0.641903473183447,0,2,1
36,1,tool,0,0,tools,2,t_324.png,324,tbd,299.968485158331,307.040407390974,7.01421937955689,tool,0.659483109159055,0,1,1
37,1,animal,0,0,tools,2,a_054.png,54,tbd,309.609099473755,314.812842034243,5.15135569991336,animal,0.935429189294837,0,2,1
38,1,animal,0,0,tools,2,a_115.png,115,tbd,317.381629696873,322.90217743997,5.46474085695436,animal,0.627456482794287,0,2,1
39,1,animal,0,0,tools,2,a_055.png,55,tbd,325.454367244871,332.326057391679,6.79549661236776,animal,0.544995128485425,0,2,1
40,1,tool,0,0,tools,2,t_260.png,260,tbd,334.894793415532,342.133420696458,7.19060078623728,tool,1.05312679261419,0,1,1
41,1,animal,0,0,tools,2,a_001.png,1,tbd,344.685479961097,351.840759689316,7.10194559127411,animal,0.64324319475736,0,2,1
42,1,animal,0,0,tools,2,a_152.png,152,tbd,354.392781748376,359.69666472785,5.25296352253546,animal,0.648702792706445,0,2,1
43,1,animal,0,0,tools,2,a_118.png,118,tbd,362.248687749122,369.47062896944,7.16385731414024,animal,0.809377650587521,0,2,1
44,1,tool,0,0,tools,2,t_262.png,262,tbd,372.039371728785,379.378090355822,7.28146206827177,tool,1.0492574124205,0,1,1
45,1,animal,0,0,tools,2,a_161.png,161,tbd,381.946790136309,387.817770490481,5.81670382198094,animal,0.823927597793954,0,2,1
46,1,tool,0,0,tools,2,t_329.png,329,tbd,390.369541411883,395.990604195656,5.57741785329175,tool,0.701485000228786,0,1,1
47,1,tool,0,0,tools,2,t_322.png,322,tbd,398.559295957699,405.497748628996,6.87259037260504,tool,0.655702894059459,0,1,1
48,1,animal,0,0,tools,2,a_012.png,12,tbd,408.049771650268,412.386236773887,4.2775824670097,animal,0.799613752058576,0,2,1
49,1,tool,0,0,tools,2,t_261.png,261,tbd,414.954961571919,421.276288194563,6.25503377392709,tool,0.597904348156135,0,1,1
50,1,animal,0,0,tools,2,a_074.png,74,tbd,423.828325969772,428.181496077527,4.29025143711082,animal,0.66011913211355,0,2,1
51,1,tool,0,0,tools,2,t_231.png,231,tbd,430.750184311455,437.471742250164,6.65979793814785,tool,0.657280603042636,0,1,1
52,1,tool,0,0,tools,2,t_189.png,189,tbd,440.023816589476,447.062352267702,6.97520492188089,tool,0.649292950162817,0,1,1
53,1,animal,0,0,tools,2,a_127.png,127,tbd,449.631047237122,455.235168332301,5.54583144283908,animal,0.664744491179363,0,2,1
54,1,animal,0,0,tools,2,a_104.png,104,tbd,457.803851755162,465.175991576293,7.31660640747438,animal,0.522338534694654,0,2,1
55,1,animal,0,0,tools,2,a_139.png,139,tbd,467.727997277728,475.333558485395,7.54697026346351,animal,0.628250950196389,0,2,1
56,1,tool,0,0,tools,2,t_234.png,234,tbd,477.902279434574,482.955959387053,4.98831937258774,tool,0.736144883505858,0,1,1
57,1,tool,0,0,tools,2,t_278.png,278,tbd,485.508016406527,489.810942625298,4.25643155588575,tool,0.672538418459226,0,1,1
58,1,tool,0,0,tools,2,t_200.png,200,tbd,492.363175409058,499.96876452091,7.55349099381928,tool,0.455117675964402,0,1,1
59,1,animal,0,0,tools,2,a_019.png,19,tbd,502.520804220545,508.975546520594,6.39878969516454,animal,0.455852486145204,0,2,1
60,1,animal,0,0,tools,2,a_148.png,148,tbd,511.527563768587,518.933024713635,7.35275959917734,animal,0.538828303801893,0,2,1
