trial,phase,object,toShock,seenBefore,shockedCategory,responseSide,filename,num,name,onsetFixationCross,onsetStimulus,interTrialTime,response,reactionTime,wasShocked,buttonPressed,isResponseCorrect
1,1,animal,0,0,animals,1,a_093.png,93,tbd,0.0225221127057011,7.06155949222375,6.82964096754134,animal,0.967989801662043,0,1,1
2,1,tool,0,0,animals,1,t_302.png,302,tbd,9.64699193602064,16.0021549825015,6.29442995565977,tool,0.714977161183924,0,2,1
3,1,animal,0,0,animals,1,a_069.png,69,tbd,18.5542413376443,25.376453765537,6.75370344358139,animal,0.69092779753737,0,1,1
4,1,animal,0,0,animals,1,a_162.png,162,tbd,27.9285256581079,34.7173759141642,6.74618184113816,animal,0.819262419861843,0,1,1
5,1,tool,0,0,animals,1,t_300.png,300,tbd,37.2694499885019,42.4569974309779,5.12347018553633,tool,1.02692782370832,0,2,1
6,1,animal,0,0,animals,1,a_019.png,19,tbd,45.0090839675267,51.9814154792366,6.91575132857624,animal,0.794963431682845,0,1,1
7,1,tool,0,0,animals,1,t_321.png,321,tbd,54.5334829405328,62.4732732220782,7.88145572953954,tool,0.684446174131153,0,2,1
8,1,tool,0,0,animals,1,t_273.png,273,tbd,65.0253483050601,71.2637560475978,6.19358904836164,tool,0.966338751975854,0,2,1
9,1,animal,0,0,animals,1,a_171.png,171,tbd,73.8158347346107,80.8715776898171,7.00187203359332,animal,0.818846228528855,0,1,1
10,1,animal,0,0,animals,1,a_089.png,89,tbd,83.4236525744582,88.9114344368427,5.42210189472296,animal,0.968254104041989,0,1,1
11,1,animal,0,0,animals,1,a_156.png,156,tbd,91.4635122376021,96.7678196431425,5.23568955783044,animal,0.699153496281724,0,1,1
12,1,tool,0,0,animals,1,t_311.png,311,tbd,99.319908272937,103.790204515752,4.40444407801761,tool,1.08113112965111,0,2,1
13,1,animal,0,0,animals,1,a_142.png,142,tbd,106.342274222194,111.830062545716,5.42231163552539,animal,0.652549620843274,0,1,1
14,1,tool,0,0,animals,1,t_344.png,344,tbd,114.398827902,121.237709772371,6.77984464077768,tool,1.04927214877171,0,2,1
15,1,animal,0,0,animals,1,a_031.png,31,tbd,123.789801580002,129.310685515007,5.44459000891583,animal,0.815600591307884,0,1,1
16,1,tool,0,0,animals,1,t_313.png,313,tbd,131.913072336401,137.967842289585,6.00035188332483,tool,0.955819629030884,0,2,1
17,1,animal,0,0,animals,1,a_129.png,129,tbd,140.52005718162,146.825179249101,6.21981075987868,animal,0.803768474659591,0,1,1
18,1,tool,0,0,animals,1,t_189.png,189,tbd,149.377261177333,153.664069226365,4.22050760666444,tool,0.868140722763201,0,2,1
19,1,tool,0,0,animals,1,t_269.png,269,tbd,156.216163038716,161.103461320059,4.81932006344364,tool,0.747951243954958,0,2,1
20,1,animal,0,0,animals,1,a_143.png,143,tbd,163.655543092031,169.61037956047,5.8818756811553,animal,1.44142070772796,0,1,1
21,1,animal,0,0,animals,1,a_002.png,2,tbd,172.162456643811,178.334134159632,6.10767576764556,animal,0.716006306158306,0,1,1
22,1,tool,0,0,animals,1,t_201.png,201,tbd,180.886209470464,188.342272010919,7.38704859938397,tool,1.16217866504485,0,2,1
23,1,tool,0,0,animals,1,t_251.png,251,tbd,190.894347001016,198.917539821434,7.97732881772562,tool,0.757372401478278,0,2,1
24,1,tool,0,0,animals,1,t_224.png,224,tbd,201.469609329533,207.6412994764,6.12390767184346,tool,0.852870046675889,0,2,1
25,1,animal,0,0,animals,1,a_047.png,47,tbd,210.176694228858,217.832926631216,7.60188325734446,animal,1.07370876167261,0,1,1
26,1,tool,0,0,animals,1,t_233.png,233,tbd,220.384997177469,226.806885656581,6.36871794096664,tool,0.75506314067934,0,2,1
27,1,animal,0,0,animals,1,a_058.png,58,tbd,229.358952354016,237.031853983573,7.61569890672679,animal,0.892496231846962,0,1,1
28,1,tool,0,0,animals,1,t_248.png,248,tbd,239.583942659809,247.54040337554,7.90974559395225,tool,0.846269966685213,0,2,1
29,1,tool,0,0,animals,1,t_194.png,194,tbd,250.092481100352,258.09897666725,7.94895511130806,tool,1.08917596785795,0,2,1
30,1,animal,0,0,animals,1,a_120.png,120,tbd,260.651061418717,266.255617204597,5.53902731240783,animal,0.785710752792511,0,1,1
31,1,tool,0,0,animals,1,t_188.png,188,tbd,268.807695891612,275.413064617725,6.55633169190023,tool,0.763697122209123,0,2,1
32,1,animal,0,0,animals,1,a_080.png,80,tbd,277.965146068962,285.854882926229,7.82974369253085,animal,0.721245875720342,0,1,1
33,1,tool,0,0,animals,1,t_290.png,290,tbd,288.406967386471,294.878888838783,6.42233765030045,tool,0.871641415966224,0,2,1
34,1,animal,0,0,animals,1,a_013.png,13,tbd,297.430967968925,302.685238349743,5.1874254765464,animal,0.740589009637915,0,1,1
35,1,tool,0,0,animals,1,t_219.png,219,tbd,305.237313892785,309.841048108097,4.54890924107375,tool,1.13303523996183,0,2,1
36,1,animal,0,0,animals,1,a_053.png,53,tbd,312.393126444869,318.44805056422,6.00723265768315,animal,1.85546074376362,0,1,1
37,1,animal,0,0,animals,1,a_139.png,139,tbd,320.983451089905,326.738120642071,5.70328443483804,animal,0.720615387122962,0,1,1
38,1,animal,0,0,animals,1,a_055.png,55,tbd,329.290199527428,337.346751818837,7.99505782450527,animal,1.12040253572923,0,1,1
39,1,tool,0,0,animals,1,t_277.png,277,tbd,339.898828995063,346.187265296467,6.22611479841764,tool,1.50216915512829,0,2,1
40,1,animal,0,0,animals,1,a_138.png,138,tbd,348.739348718551,353.810132775341,5.01612764779718,animal,0.716631738949218,0,1,1
41,1,tool,0,0,animals,1,t_351.png,351,tbd,356.362210576099,361.883353154186,5.47394255563028,tool,0.830692238121628,0,2,1
42,1,animal,0,0,animals,1,a_008.png,8,tbd,364.435435529906,370.890671878391,6.39396752859439,animal,1.25775358653664,0,1,1
43,1,animal,0,0,animals,1,a_033.png,33,tbd,373.442756895942,377.696205875027,4.1912584816275,animal,0.898385382191918,0,1,1
44,1,tool,0,0,animals,1,t_347.png,347,tbd,380.248301303625,384.818669557299,4.52069076782277,tool,1.32128594395908,0,2,1
45,1,tool,0,0,animals,1,t_220.png,220,tbd,387.370748016463,392.64170548017,5.22297847778976,tool,0.835519946014756,0,2,1
46,1,animal,0,0,animals,1,a_016.png,16,tbd,395.193772743125,401.498898693293,6.24646453326023,animal,0.769661505895783,0,1,1
47,1,tool,0,0,animals,1,t_318.png,318,tbd,404.050988698909,408.5713176237,4.45831255529279,tool,1.25345246560028,0,2,1
48,1,animal,0,0,animals,1,a_038.png,38,tbd,411.106713507199,418.829651806875,7.66037442938725,animal,1.37751077774738,0,1,1
49,1,animal,0,0,animals,1,a_096.png,96,tbd,421.381734541048,426.969609430884,5.53297596009048,animal,0.757840750186006,0,1,1
50,1,animal,0,0,animals,1,a_163.png,163,tbd,429.521690287093,435.009482092255,5.43192169144721,animal,1.04528144443611,0,1,1
51,1,tool,0,0,animals,1,t_320.png,320,tbd,437.561561543131,443.933405257805,6.31463990058771,tool,0.682757336759096,0,2,1
52,1,tool,0,0,animals,1,t_335.png,335,tbd,446.485485945177,451.92323009929,5.37793207593018,tool,0.97011404494333,0,2,1
53,1,animal,0,0,animals,1,a_060.png,60,tbd,454.475305059879,462.348368566838,7.81390529200791,animal,1.10743979542167,0,1,1
54,1,tool,0,0,animals,1,t_256.png,256,tbd,464.900448414399,469.654315990329,4.70382494198944,tool,0.858790354734083,0,2,1
55,1,tool,0,0,animals,1,t_270.png,270,tbd,472.22306613711,477.410580830259,5.14045188946699,tool,0.922708134763525,0,2,1
56,1,tool,0,0,animals,1,t_299.png,299,tbd,479.962701306193,487.702312491754,7.67211795992895,tool,1.36752654108932,0,2,1
57,1,animal,0,0,animals,1,a_042.png,42,tbd,490.271082773239,495.475302895047,5.15335792474425,animal,0.867811138028628,0,1,1
58,1,tool,0,0,animals,1,t_263.png,263,tbd,498.027385046767,502.397591452545,4.31543725516288,tool,0.873689860387458,0,2,1
59,1,animal,0,0,animals,1,a_123.png,123,tbd,504.949683125213,510.354073231314,5.33628504072379,animal,1.22860786114688,0,1,1
60,1,tool,0,0,animals,1,t_254.png,254,tbd,512.906150757783,520.061961204052,7.09229278783575,tool,1.38910990573095,0,2,1
