trial,phase,object,toShock,seenBefore,shockedCategory,responseSide,filename,num,name,onsetFixationCross,onsetStimulus,interTrialTime,response,reactionTime,wasShocked,buttonPressed,isResponseCorrect
1,3,tool,0,0,animals,1,t_286.png,286,tbd,0.0176110890206473,6.05585800674271,5.9380570348273,tool,0.861867752844773,0,2,1
2,3,animal,0,0,animals,1,a_034.png,34,tbd,8.62460560516047,16.2641557869702,7.5580316123126,animal,0.761944645990297,0,1,1
3,3,animal,0,0,animals,1,a_110.png,110,tbd,18.816228283129,23.5367405794259,4.66555752470803,animal,0.770743670091179,0,1,1
4,3,animal,0,0,animals,1,a_174.png,174,tbd,26.0888069547473,30.1587890890532,4.01082166244243,animal,0.724839678417993,0,1,1
5,3,tool,0,0,animals,1,t_285.png,285,tbd,32.7108629526647,39.0159837480169,6.24612165758342,tool,1.1121113023728,0,2,1
6,3,animal,0,0,animals,1,a_131.png,131,tbd,41.5680641377148,45.8382001605587,4.21164033096527,animal,0.760113544341948,0,1,1
7,3,animal,0,0,animals,1,a_003.png,3,tbd,48.4069538221811,53.0440495322255,4.57512668389468,animal,1.25351407028029,0,1,1
8,3,animal,0,0,animals,1,a_169.png,169,tbd,55.5794564272201,62.3516186113084,6.70999492707033,animal,0.71531328162564,0,1,1
9,3,tool,0,0,animals,1,t_330.png,330,tbd,64.9037017454702,69.0904388935469,4.1288426552214,tool,0.934642565065587,0,2,1
10,3,tool,0,0,animals,1,t_322.png,322,tbd,71.6591918291851,78.8483718315019,7.14189838359288,tool,0.66609763631277,0,2,1
11,3,animal,0,0,animals,1,a_155.png,155,tbd,81.4004395877146,88.3394126714611,6.87713548914972,animal,0.709478211685564,0,1,1
12,3,animal,0,0,animals,1,a_020.png,20,tbd,90.8914929632083,96.0957369286625,5.14238944150798,animal,1.04443474782784,0,1,1
13,3,tool,0,0,animals,1,t_308.png,308,tbd,98.6477987868202,104.619319072299,5.9076238732736,tool,0.774096435419779,0,2,1
14,3,animal,0,0,animals,1,a_150.png,150,tbd,107.171403756382,113.059508292981,5.81511618964824,animal,0.872337173159394,0,1,1
15,3,tool,0,0,animals,1,t_258.png,258,tbd,115.611597231129,121.683192661299,6.01696887658499,tool,0.880940018974798,0,2,1
16,3,tool,0,0,animals,1,t_212.png,212,tbd,124.235266119664,131.741369693578,7.45324474198289,tool,0.9191110685897,0,2,1
17,3,animal,0,0,animals,1,a_119.png,119,tbd,134.293441828688,142.133147614102,7.78982300225447,animal,0.644786539691268,0,1,1
18,3,tool,0,0,animals,1,t_193.png,193,tbd,144.685231852618,150.38987470551,5.64021618831228,tool,0.600306961867318,0,2,1
19,3,tool,0,0,animals,1,t_255.png,255,tbd,152.941938545711,159.964320950201,6.97457929900837,tool,0.618217736024235,0,2,1
20,3,tool,0,0,animals,1,t_229.png,229,tbd,162.516392470719,168.571312775635,6.00178664207942,tool,1.28769254246799,0,2,1
21,3,animal,0,0,animals,1,a_140.png,140,tbd,171.106705669692,177.194987954037,6.03461765611816,animal,0.680219922182005,0,1,1
22,3,animal,0,0,animals,1,a_028.png,28,tbd,179.747071760425,187.786932035533,7.9702447859654,animal,1.25072928202644,0,1,1
23,3,animal,0,0,animals,1,a_179.png,179,tbd,190.339013427752,194.976115454539,4.58426752704859,animal,0.83482423096757,0,1,1
24,3,tool,0,0,animals,1,t_231.png,231,tbd,197.528186516054,202.148608089925,4.5727522313976,tool,1.20854835262617,0,2,1
25,3,tool,0,0,animals,1,t_225.png,225,tbd,204.700682831228,209.70475352579,4.9433811602945,tool,1.01475045148072,0,2,1
26,3,animal,0,0,animals,1,a_066.png,66,tbd,212.256831015437,218.061550968187,5.74311142464297,animal,0.897223388812563,0,1,1
27,3,animal,0,0,animals,1,a_040.png,40,tbd,220.613624399673,226.935430026835,6.25851032667911,animal,0.774612595607323,0,1,1
28,3,animal,0,0,animals,1,a_086.png,86,tbd,229.487508924252,235.525746223813,5.97848063739931,animal,0.844770746101858,0,1,1
29,3,tool,0,0,animals,1,t_206.png,206,tbd,238.077830128155,245.834131515237,7.69575043280873,tool,0.876796655891667,0,2,1
30,3,tool,0,0,animals,1,t_247.png,247,tbd,248.386198532029,254.607928413348,6.15745292201681,tool,0.719268836286574,0,2,1
31,3,tool,0,0,animals,1,t_217.png,217,tbd,257.160000129768,264.56602706671,7.34989834442069,tool,0.825543574639596,0,2,1
32,3,animal,0,0,animals,1,a_158.png,158,tbd,267.134783000351,272.87276550039,5.6797008343212,animal,0.839039880320342,0,1,1
33,3,animal,0,0,animals,1,a_083.png,83,tbd,275.424855521689,281.01272529603,5.52445959796203,animal,0.666384062016732,0,1,1
34,3,animal,0,0,animals,1,a_081.png,81,tbd,283.564805681848,291.604690261722,7.97524115079683,animal,1.27884324752449,0,1,1
35,3,tool,0,0,animals,1,t_338.png,338,tbd,294.156753233792,301.412639514234,7.20654702914234,tool,1.19225695098066,0,2,1
36,3,tool,0,0,animals,1,t_279.png,279,tbd,303.948046952746,311.253979835084,7.24845058708639,tool,1.17636828080686,0,2,1
37,3,tool,0,0,animals,1,t_323.png,323,tbd,313.8060587325,320.444790844755,6.58447402918253,tool,1.36984274303904,0,2,1
38,3,animal,0,0,animals,1,a_103.png,103,tbd,322.996857861546,329.301988390331,6.25135364397176,animal,0.705944984078087,0,1,1
39,3,tool,0,0,animals,1,t_181.png,181,tbd,331.854070174362,337.291800957393,5.39580110055882,tool,0.663436657354396,0,2,1
40,3,animal,0,0,animals,1,a_014.png,14,tbd,339.860572737543,347.466751139298,7.54851822469792,animal,0.913815733740194,0,1,1
41,3,tool,0,0,animals,1,t_209.png,209,tbd,350.018834719025,356.740954710873,6.66748917409586,tool,0.681091506365192,0,2,1
42,3,tool,0,0,animals,1,t_291.png,291,tbd,359.293037702884,364.597345867734,5.23690486885864,tool,0.858929484344117,0,2,1
43,3,tool,0,0,animals,1,t_272.png,272,tbd,367.149426368824,374.271884377009,7.06662999000964,tool,0.831850226519236,0,2,1
44,3,animal,0,0,animals,1,a_111.png,111,tbd,376.8239531665,383.762933306412,6.87880741440695,animal,1.18707536946204,0,1,1
45,3,tool,0,0,animals,1,t_276.png,276,tbd,386.298335515217,391.05220624942,4.69820249655312,tool,0.928149387702433,0,2,1
46,3,animal,0,0,animals,1,a_071.png,71,tbd,393.604262681964,400.826809349899,7.17488160822435,animal,1.3859186243626,0,1,1
47,3,tool,0,0,animals,1,t_223.png,223,tbd,403.378886964378,407.849175900119,4.42418728388123,tool,0.968861645733341,0,2,1
48,3,tool,0,0,animals,1,t_198.png,198,tbd,410.401250084464,415.588810585561,5.12759590569691,tool,0.641382038116717,0,2,1
49,3,tool,0,0,animals,1,t_303.png,303,tbd,418.140880600358,423.528592954195,5.32867966906531,tool,0.716908981277811,0,2,1
50,3,animal,0,0,animals,1,a_021.png,21,tbd,426.080673566676,432.936236006422,6.79574203138316,animal,1.4937102288095,0,1,1
51,3,animal,0,0,animals,1,a_154.png,154,tbd,435.488313006308,442.727537115716,7.18597604823115,animal,0.809754555026302,0,1,1
52,3,animal,0,0,animals,1,a_041.png,41,tbd,445.279612177754,451.317857050119,5.98274987220474,animal,1.10380588907537,0,1,1
53,3,tool,0,0,animals,1,t_249.png,249,tbd,453.853249106802,459.207601058008,5.28576488004518,tool,0.827209568960825,0,2,1
54,3,animal,0,0,animals,1,a_062.png,62,tbd,461.759676957419,466.596933710121,4.77828962007109,animal,0.86518799525038,0,1,1
55,3,animal,0,0,animals,1,a_166.png,166,tbd,469.149057733188,476.404916778054,7.19448989992535,animal,1.24765530628247,0,1,1
56,3,animal,0,0,animals,1,a_097.png,97,tbd,478.956990084709,485.612392680223,6.6330691146484,animal,1.0871160503375,0,1,1
57,3,tool,0,0,animals,1,t_205.png,205,tbd,488.131121221415,492.551378673992,4.39481051612834,tool,0.941376729506374,0,2,1
58,3,tool,0,0,animals,1,t_237.png,237,tbd,495.086769073247,499.657152539916,4.51708553072834,tool,1.15190956427796,0,2,1
59,3,tool,0,0,animals,1,t_333.png,333,tbd,502.175872647931,506.829644239971,4.62001303335439,tool,0.72668400126895,0,2,1
60,3,animal,0,0,animals,1,a_112.png,112,tbd,509.365043619799,516.370740996574,6.95108930370385,animal,0.914272254582102,0,1,1
