trial,phase,object,toShock,seenBefore,shockedCategory,responseSide,filename,num,name,onsetFixationCross,onsetStimulus,interTrialTime,response,reactionTime,wasShocked,buttonPressed,isResponseCorrect
1,3,animal,0,0,tools,2,a_058.png,58,tbd,0.0174080801625678,4.70451589264849,4.56931462601517,animal,1.50752366896268,0,2,1
2,3,tool,0,0,tools,2,t_203.png,203,tbd,7.2732429580974,11.626742877339,4.30756571319763,tool,1.07247655797255,0,1,1
3,3,animal,0,0,tools,2,a_010.png,10,tbd,14.1787922426265,21.3679042795302,7.13313377434804,animal,1.27465309375475,0,2,1
4,3,animal,0,0,tools,2,a_062.png,62,tbd,23.9199495900612,28.3401576437209,4.36345673618305,animal,1.05552806617561,0,2,1
5,3,tool,0,0,tools,2,t_235.png,235,tbd,30.8922184876501,34.9621586616013,4.02614869996793,tool,1.86870669491691,0,1,1
6,3,animal,0,0,tools,2,a_158.png,158,tbd,37.5141983578906,42.6016228044755,5.03832302483083,animal,1.63948723503563,0,2,1
7,3,animal,0,0,tools,2,a_071.png,71,tbd,45.1536771425417,51.8590615703106,6.66233721210409,animal,1.08529372854537,0,2,1
8,3,animal,0,0,tools,2,a_009.png,9,tbd,54.4111127452343,59.6486531352602,5.19381667187379,animal,1.07093340311621,0,2,1
9,3,tool,0,0,tools,2,t_187.png,187,tbd,62.2007001406746,69.9902925766,7.74924234913913,tool,1.40039645447177,0,1,1
10,3,animal,0,0,tools,2,a_050.png,50,tbd,72.5423522994024,80.2985759732728,7.72043408304749,animal,0.869679223942512,0,2,1
11,3,animal,0,0,tools,2,a_152.png,152,tbd,82.8506302878122,88.4217768056224,5.52411378953833,animal,1.29555659271136,0,2,1
12,3,animal,0,0,tools,2,a_054.png,54,tbd,90.9738186058785,98.1462512947874,7.11690499085924,animal,1.19141277149174,0,2,1
13,3,tool,0,0,tools,2,t_273.png,273,tbd,100.698299303695,107.4870877594,6.73681088610869,tool,1.03191607366171,0,1,1
14,3,tool,0,0,tools,2,t_319.png,319,tbd,110.039133596641,116.127360422663,6.04127995993731,tool,1.28580580518974,0,1,1
15,3,tool,0,0,tools,2,t_205.png,205,tbd,118.696091295595,126.519046976307,7.77563735429095,tool,1.66541703775874,0,1,1
16,3,animal,0,0,tools,2,a_116.png,116,tbd,129.071089697456,136.126764897388,7.00044540882251,animal,2.34502627036636,0,2,1
17,3,tool,0,0,tools,2,t_309.png,309,tbd,138.678817099331,144.266632634026,5.53151202102223,tool,0.649220844195952,0,1,1
18,3,tool,0,0,tools,2,t_234.png,234,tbd,146.835365384293,153.357272871825,6.47513127476459,tool,1.81392279342253,0,1,1
19,3,tool,0,0,tools,2,t_241.png,241,tbd,155.909322145882,160.029296923607,4.07627907854749,tool,1.28811389935436,0,1,1
20,3,animal,0,0,tools,2,a_036.png,36,tbd,162.581343626065,168.135810237014,5.51163257293316,animal,1.13898176047223,0,2,1
21,3,animal,0,0,tools,2,a_115.png,115,tbd,170.67118764891,175.708565698103,4.97985011950515,animal,0.882270805392182,0,2,1
22,3,animal,0,0,tools,2,a_150.png,150,tbd,178.260609610952,183.28131584503,4.96111192164932,animal,0.705631658569473,0,2,1
23,3,tool,0,0,tools,2,t_302.png,302,tbd,185.83336246201,191.304415993956,5.41926951314551,tool,0.653848154881416,0,1,1
24,3,tool,0,0,tools,2,t_303.png,303,tbd,193.839791710969,198.493534786874,4.61178406911074,tool,0.851001917817484,0,1,1
25,3,animal,0,0,tools,2,a_155.png,155,tbd,201.045592538238,208.534938613051,7.44600157235584,animal,0.842768161859567,0,2,1
26,3,animal,0,0,tools,2,a_081.png,81,tbd,211.086982364097,218.259408588445,7.12573761007467,animal,1.4966505942466,0,2,1
27,3,animal,0,0,tools,2,a_096.png,96,tbd,220.811466704712,228.784537869862,7.92172426131254,animal,1.24483634093485,0,2,1
28,3,tool,0,0,tools,2,t_256.png,256,tbd,231.336580223229,238.675818237487,7.29307822925836,tool,1.09370943059184,0,1,1
29,3,animal,0,0,tools,2,a_143.png,143,tbd,241.22786430423,246.69890394486,5.42732048810667,animal,1.45693348394707,0,2,1
30,3,tool,0,0,tools,2,t_200.png,200,tbd,249.267663462764,257.240719618349,7.92150951250126,tool,1.88446452172502,0,1,1
31,3,tool,0,0,tools,2,t_220.png,220,tbd,259.792775195165,267.64907461511,7.80872692653665,tool,1.62637167499997,0,1,1
32,3,animal,0,0,tools,2,a_048.png,48,tbd,270.201142429662,276.756411602499,6.50485161498955,animal,1.50328098901446,0,2,1
33,3,animal,0,0,tools,2,a_145.png,145,tbd,279.308465160826,283.745352797741,4.39514462971782,animal,1.04152677489037,0,2,1
34,3,tool,0,0,tools,2,t_349.png,349,tbd,286.297405552799,291.685063007393,5.33393432784909,tool,1.29106525448515,0,1,1
35,3,animal,0,0,tools,2,a_029.png,29,tbd,294.237115603526,300.508826929065,6.22117209914148,animal,0.902522353826498,0,2,1
36,3,tool,0,0,tools,2,t_328.png,328,tbd,303.060869032273,309.399303086968,6.28981421170948,tool,1.7623235486426,0,1,1
37,3,tool,0,0,tools,2,t_247.png,247,tbd,311.951347297021,316.78856632745,4.78754933786963,tool,1.66825821724706,0,1,1
38,3,animal,0,0,tools,2,a_101.png,101,tbd,319.340623275544,326.829968917747,7.43431557953476,animal,1.56413141546,0,2,1
39,3,tool,0,0,tools,2,t_333.png,333,tbd,329.382020572335,335.553646800647,6.12910136445419,tool,1.88673062356247,0,1,1
40,3,animal,0,0,tools,2,a_003.png,3,tbd,338.105690757671,343.843641294377,5.7003406571059,animal,1.54797240612243,0,2,1
41,3,animal,0,0,tools,2,a_056.png,56,tbd,346.395696135631,351.282942916838,4.83044218223937,animal,1.35479418004616,0,2,1
42,3,tool,0,0,tools,2,t_330.png,330,tbd,353.818323742031,360.823943834883,6.96071284598546,tool,0.917281507663574,0,1,1
43,3,animal,0,0,tools,2,a_018.png,18,tbd,363.376003142854,371.382433654082,7.96386309539883,animal,0.898922437943838,0,2,1
44,3,tool,0,0,tools,2,t_320.png,320,tbd,373.934482698642,378.004411944192,4.02333167715726,tool,0.970116187341773,0,1,1
45,3,animal,0,0,tools,2,a_030.png,30,tbd,380.539780443298,388.479490932386,7.88879356261043,animal,0.989311336852552,0,2,1
46,3,tool,0,0,tools,2,t_289.png,289,tbd,391.031545611833,395.101481569222,4.01995484965527,tool,1.88748654395386,0,1,1
47,3,tool,0,0,tools,2,t_215.png,215,tbd,397.65354433754,405.609917567152,7.9100798176197,tool,1.66140924527645,0,1,1
48,3,tool,0,0,tools,2,t_259.png,259,tbd,408.161975959978,414.633842437728,6.41833952199223,tool,1.29474344667688,0,1,1
49,3,animal,0,0,tools,2,a_140.png,140,tbd,417.18590009211,422.590229179368,5.36100010580363,tool,1.39751181440442,0,1,0
50,3,tool,0,0,tools,2,t_236.png,236,tbd,425.142289128802,432.181268226359,6.99325196658405,tool,1.4727979617528,0,1,1
51,3,tool,0,0,tools,2,t_326.png,326,tbd,434.71664119219,441.872381003817,7.11734877134033,tool,1.69797132955136,0,1,1
52,3,animal,0,0,tools,2,a_124.png,124,tbd,444.441123723169,450.429253167182,5.94123124816867,animal,1.86335419213356,0,2,1
53,3,animal,0,0,tools,2,a_059.png,59,tbd,452.981317312529,458.318924147417,5.28985003460575,animal,1.24787800700142,0,2,1
54,3,tool,0,0,tools,2,t_323.png,323,tbd,460.870993633325,465.658170297593,4.7321660287935,tool,1.92980143054956,0,1,1
55,3,tool,0,0,tools,2,t_313.png,313,tbd,468.210219686411,472.713843090598,4.46582100685565,tool,0.801252947690955,0,1,1
56,3,tool,0,0,tools,2,t_274.png,274,tbd,475.265886929996,480.353309799324,5.0418182297672,tool,0.83212057928904,0,1,1
57,3,animal,0,0,tools,2,a_130.png,130,tbd,482.905365829403,490.544826335223,7.59872706538941,animal,0.564885067204159,0,2,1
58,3,animal,0,0,tools,2,a_148.png,148,tbd,493.096876203694,500.936507136346,7.79892014777868,animal,0.945400742457423,0,2,1
59,3,tool,0,0,tools,2,t_255.png,255,tbd,503.488561748094,509.726911023416,6.1967474507506,tool,0.568347183223523,0,1,1
60,3,tool,0,0,tools,2,t_181.png,181,tbd,512.278960915417,519.66822065425,7.34618787807715,tool,0.521316372778529,0,1,1
