trial,phase,object,toShock,seenBefore,shockedCategory,responseSide,filename,num,name,onsetFixationCross,onsetStimulus,interTrialTime,response,reactionTime,wasShocked,buttonPressed,isResponseCorrect
1,3,animal,0,0,animals,2,a_115.png,115,tbd,0.0174306514622913,6.80623995086717,6.68565005929566,animal,0.639478764624073,0,2,1
2,3,tool,0,0,animals,2,t_337.png,337,tbd,9.37497088282589,13.845247332466,4.41227976736686,tool,0.620646432522335,0,1,1
3,3,tool,0,0,animals,2,t_241.png,241,tbd,16.39728380627,22.8691836684829,6.42848994712926,tool,0.614008815081888,0,1,1
4,3,animal,0,0,animals,2,a_166.png,166,tbd,25.454614587276,32.2767726720499,6.77229883149299,animal,0.41265960219198,0,2,1
5,3,tool,0,0,animals,2,t_339.png,339,tbd,34.8288368136841,41.9512329308936,7.06804253310613,tool,0.481746602190015,0,1,1
6,3,tool,0,0,animals,2,t_344.png,344,tbd,44.5033094361165,52.1427970767618,7.58364342358968,tool,0.605303624327917,0,1,1
7,3,animal,0,0,animals,2,a_130.png,130,tbd,54.6948566544015,61.1333892257862,6.38596338154632,animal,0.543993441368912,0,2,1
8,3,animal,0,0,animals,2,a_138.png,138,tbd,63.6854402628437,68.7728614208263,5.03727433836367,animal,0.634770285654213,0,2,1
9,3,tool,0,0,animals,2,t_296.png,296,tbd,71.3416153595845,75.7618348970173,4.3657053768979,tool,0.650007067714341,0,1,1
10,3,animal,0,0,animals,2,a_006.png,6,tbd,78.3139070225866,84.1185893897928,5.74950585821716,animal,0.557513233126883,0,2,1
11,3,animal,0,0,animals,2,a_056.png,56,tbd,86.6706514792349,93.8264179950775,7.09131456766011,animal,0.554022954663196,0,2,1
12,3,animal,0,0,animals,2,a_161.png,161,tbd,96.3784881568963,103.267375195126,6.81866292604047,animal,0.541331479097153,0,2,1
13,3,tool,0,0,animals,2,t_188.png,188,tbd,105.819424949252,111.924348916308,6.05279170060042,tool,0.718629074051023,0,1,1
14,3,tool,0,0,animals,2,t_215.png,215,tbd,114.476418958927,122.282708262138,7.75832797854897,tool,0.624601589070153,0,1,1
15,3,animal,0,0,animals,2,a_173.png,173,tbd,124.834764513251,128.921399898263,4.03582762493243,animal,0.676111664952714,0,2,1
16,3,tool,0,0,animals,2,t_244.png,244,tbd,131.473462646362,136.193927359654,4.65964068480171,tool,0.615813036084546,0,1,1
17,3,tool,0,0,animals,2,t_312.png,312,tbd,138.74599567941,145.851713139184,7.04847425691792,tool,0.569323590804743,0,1,1
18,3,tool,0,0,animals,2,t_302.png,302,tbd,148.403780102272,153.44116917972,4.9826784097295,tool,0.598104219575362,0,1,1
19,3,animal,0,0,animals,2,a_103.png,103,tbd,155.993239946136,163.882931694132,7.82815010949745,animal,0.502694862022508,0,2,1
20,3,animal,0,0,animals,2,a_098.png,98,tbd,166.434997805627,172.623316491611,6.13211443033375,animal,0.60655103615909,0,2,1
21,3,tool,0,0,animals,2,t_289.png,289,tbd,175.175376472315,179.929204525635,4.6994728159398,tool,0.59685645014315,0,1,1
22,3,tool,0,0,animals,2,t_260.png,260,tbd,182.481268758196,187.301817800713,4.76866380986268,tool,0.578517146868307,0,1,1
23,3,animal,0,0,animals,2,a_033.png,33,tbd,189.85387873502,195.475074677222,5.56489640943439,animal,0.696517321266128,0,2,1
24,3,animal,0,0,animals,2,a_067.png,67,tbd,198.027140110383,202.163801257176,4.07626477993704,animal,0.562007237814214,0,2,1
25,3,tool,0,0,animals,2,t_319.png,319,tbd,204.715873343392,209.519734396466,4.75090005704371,tool,1.07030313246787,0,1,1
26,3,animal,0,0,animals,2,a_123.png,123,tbd,212.055128401571,219.761338277476,7.65165784697322,animal,0.71002814969961,0,2,1
27,3,animal,0,0,animals,2,a_129.png,129,tbd,222.313400769983,229.252317152111,6.88482975573319,animal,0.796347300858088,0,2,1
28,3,animal,0,0,animals,2,a_042.png,42,tbd,231.804388679193,238.876748452929,7.02331692556972,animal,0.63923253531857,0,2,1
29,3,tool,0,0,animals,2,t_324.png,324,tbd,241.428818495549,246.11592011581,4.63064978049086,tool,0.635267637589095,0,1,1
30,3,tool,0,0,animals,2,t_231.png,231,tbd,248.667982341643,254.455973531758,5.74313143743586,tool,0.661464994206199,0,1,1
31,3,animal,0,0,animals,2,a_143.png,143,tbd,257.008046571576,261.778562146132,4.70689362133913,animal,0.97211692519295,0,2,1
32,3,tool,0,0,animals,2,t_331.png,331,tbd,264.330618360375,270.552293128735,6.17638720453783,tool,0.597658071783826,0,1,1
33,3,animal,0,0,animals,2,a_148.png,148,tbd,273.121037973886,277.97494167697,4.79527905739856,animal,0.557263896017048,0,2,1
34,3,animal,0,0,animals,2,a_145.png,145,tbd,280.527010777068,284.963915902745,4.37935262758949,animal,0.671445968742773,0,2,1
35,3,tool,0,0,animals,2,t_230.png,230,tbd,287.515989998175,293.354032472294,5.7788875105098,tool,0.524657437230417,0,1,1
36,3,animal,0,0,animals,2,a_060.png,60,tbd,295.906081034418,303.395460159449,7.43028478299924,animal,0.403509390508589,0,2,1
37,3,tool,0,0,animals,2,t_211.png,211,tbd,305.930839995769,310.667985815644,4.68611374363162,tool,0.592236817757566,0,1,1
38,3,tool,0,0,animals,2,t_332.png,332,tbd,313.220056865925,320.726108556956,7.4427514273963,tool,0.719422209168442,0,1,1
39,3,tool,0,0,animals,2,t_357.png,357,tbd,323.294839582329,330.5506722058,7.21152515528503,tool,0.618149624293892,0,1,1
40,3,animal,0,0,animals,2,a_110.png,110,tbd,333.136109689206,341.042479160713,7.85175257048696,animal,0.571679392217902,0,2,1
41,3,animal,0,0,animals,2,a_078.png,78,tbd,343.594549470005,347.764564213157,4.11023152146929,animal,0.60380884773258,0,2,1
42,3,animal,0,0,animals,2,a_065.png,65,tbd,350.316646400641,355.137192391899,4.75425729980627,animal,0.770415740727458,0,2,1
43,3,tool,0,0,animals,2,t_301.png,301,tbd,357.689254453069,364.744936611414,6.9975560957512,tool,0.397915491357708,0,1,1
44,3,tool,0,0,animals,2,t_259.png,259,tbd,367.297001843042,372.601283437539,5.24715288174648,tool,0.445918474284099,0,1,1
45,3,tool,0,0,animals,2,t_199.png,199,tbd,375.153335482259,379.223288551494,4.02365282066976,tool,0.60507999989386,0,1,1
46,3,animal,0,0,animals,2,a_137.png,137,tbd,381.758665785085,386.595900946706,4.79264824842072,animal,0.430738149776516,0,2,1
47,3,tool,0,0,animals,2,t_354.png,354,tbd,389.147958636819,394.702441772805,5.4895954243942,tool,0.642012325693941,0,1,1
48,3,tool,0,0,animals,2,t_240.png,240,tbd,397.23782473412,404.99407420018,7.70374257384958,tool,0.493084143311989,0,1,1
49,3,animal,0,0,animals,2,a_003.png,3,tbd,407.546127647031,414.084731269803,6.47551333982767,animal,0.522895882273133,0,2,1
50,3,tool,0,0,animals,2,t_359.png,359,tbd,416.636803915152,424.259612620607,7.57071542616321,tool,0.49314768525619,0,1,1
51,3,animal,0,0,animals,2,a_083.png,83,tbd,426.811670154651,433.667198819912,6.79866007953082,tool,0.483888736589051,0,1,0
52,3,tool,0,0,animals,2,t_246.png,246,tbd,436.219261128078,440.489363015798,4.21356785603968,tool,1.39395923621987,0,1,1
53,3,tool,0,0,animals,2,t_249.png,249,tbd,443.041427350369,448.195586271549,5.09159749373379,tool,0.811120249363285,0,1,1
54,3,animal,0,0,animals,2,a_100.png,100,tbd,450.747639599199,456.101961388449,5.30029623092282,animal,0.767813755472162,0,2,1
55,3,animal,0,0,animals,2,a_096.png,96,tbd,458.654026620077,465.025825812889,6.30565753853258,animal,0.624219201946744,0,2,1
56,3,animal,0,0,animals,2,a_140.png,140,tbd,467.577895177174,472.898844966614,5.26158594824181,animal,0.548464262373727,0,2,1
57,3,tool,0,0,animals,2,t_351.png,351,tbd,475.450912168102,482.573311540588,7.0721846295553,tool,0.769237726361098,0,1,1
58,3,tool,0,0,animals,2,t_236.png,236,tbd,485.125378935013,492.69815413564,7.52669325431039,tool,0.562760318211531,0,1,1
59,3,animal,0,0,animals,2,a_101.png,101,tbd,495.250210029151,500.304283667504,5.00038398747135,animal,0.606875296926319,0,2,1
60,3,animal,0,0,animals,2,a_139.png,139,tbd,502.856346296403,507.226522993376,4.31326752356265,animal,0.769857858753312,0,2,1
