trial,phase,object,toShock,seenBefore,shockedCategory,responseSide,filename,num,name,onsetFixationCross,onsetStimulus,interTrialTime,response,reactionTime,wasShocked,buttonPressed,isResponseCorrect
1,3,animal,0,0,animals,2,a_066.png,66,tbd,0.0177789014305745,6.70654844495584,6.58779068321346,animal,0.909043562463921,0,2,1
2,3,tool,0,0,animals,2,t_276.png,276,tbd,9.29198140451626,17.248451915395,7.90700911663573,tool,0.930610775743844,0,1,1
3,3,tool,0,0,animals,2,t_290.png,290,tbd,19.8172127176476,24.3375553211044,4.46691596672419,tool,0.842772989417426,0,1,1
4,3,tool,0,0,animals,2,t_359.png,359,tbd,26.8896305469862,31.5600832654236,4.62152401624759,tool,0.883519214628905,0,1,1
5,3,animal,0,0,animals,2,a_007.png,7,tbd,34.1121598549253,41.8851492325448,7.71691849743532,animal,1.3397458150248,0,2,1
6,3,tool,0,0,animals,2,t_195.png,195,tbd,44.4372294660061,50.0084178393008,5.51546102037454,tool,1.44190082672503,0,1,1
7,3,animal,0,0,animals,2,a_058.png,58,tbd,52.5438219321659,59.0657895290133,6.47537056175903,animal,1.11786544248753,0,2,1
8,3,tool,0,0,animals,2,t_258.png,258,tbd,61.634542143227,67.2557793949418,5.57823592369926,tool,1.01609591877786,0,1,1
9,3,tool,0,0,animals,2,t_272.png,272,tbd,69.8078487503117,76.6467452649958,6.78269468856262,tool,0.855488171539037,0,1,1
10,3,tool,0,0,animals,2,t_318.png,318,tbd,79.1821386391421,85.0702589679604,5.8366934532844,tool,0.917295881696191,0,1,1
11,3,animal,0,0,animals,2,a_053.png,53,tbd,87.6223370452572,91.7923814321548,4.12985713138269,animal,1.90553901985186,0,2,1
12,3,animal,0,0,animals,2,a_162.png,162,tbd,94.3277875921958,102.084083544742,7.71468978227563,animal,0.780114789940853,0,2,1
13,3,tool,0,0,animals,2,t_288.png,288,tbd,104.636172349055,110.691081375153,5.98813828304097,tool,1.12254799209404,0,1,1
14,3,tool,0,0,animals,2,t_315.png,315,tbd,113.2264929339,117.830231190681,4.54298739754578,tool,0.833583609368361,0,1,1
15,3,animal,0,0,animals,2,a_031.png,31,tbd,120.38230696075,126.987542675055,6.52596587780073,animal,0.941585205426236,0,2,1
16,3,tool,0,0,animals,2,t_232.png,232,tbd,129.573078213267,135.377775489847,5.73902740265665,tool,0.774760191095993,0,1,1
17,3,tool,0,0,animals,2,t_277.png,277,tbd,137.929909149207,145.135765534193,7.14226225851985,tool,1.52415618728264,0,1,1
18,3,animal,0,0,animals,2,a_102.png,102,tbd,147.687841668489,153.726072923422,5.97831225839293,animal,0.736124796090735,0,2,1
19,3,animal,0,0,animals,2,a_119.png,119,tbd,156.294833698779,161.999468635804,5.6540736264673,animal,0.769072800401773,0,2,1
20,3,tool,0,0,animals,2,t_328.png,328,tbd,164.551548869262,172.508013491042,7.89285141423209,tool,0.830834769662033,0,1,1
21,3,animal,0,0,animals,2,a_144.png,144,tbd,175.060085999972,180.447796563232,5.32957070662888,animal,1.20142544648843,0,2,1
22,3,animal,0,0,animals,2,a_153.png,153,tbd,183.016564332665,190.622736823541,7.55330360450452,animal,0.919779616520827,0,2,1
23,3,animal,0,0,animals,2,a_112.png,112,tbd,193.174826643848,200.897764140565,7.67262596066395,animal,0.929261997072899,0,2,1
24,3,tool,0,0,animals,2,t_281.png,281,tbd,203.449842360635,209.404676598624,5.88762745472637,tool,0.956638490890327,0,1,1
25,3,tool,0,0,animals,2,t_311.png,311,tbd,211.956753161227,216.844050948141,4.8377494534625,tool,0.950600863805448,0,1,1
26,3,tool,0,0,animals,2,t_248.png,248,tbd,219.412814814968,223.516153418641,4.05414908487417,tool,0.970701427391759,0,1,1
27,3,animal,0,0,animals,2,a_130.png,130,tbd,226.05154124301,232.673587334015,6.57658847007604,animal,0.701540518883121,0,2,1
28,3,animal,0,0,animals,2,a_160.png,160,tbd,235.225671763917,240.213054316915,4.92603383154827,animal,1.08235491017695,0,2,1
29,3,animal,0,0,animals,2,a_149.png,149,tbd,242.765128367431,248.836735691712,6.01358871044797,animal,0.677066968528379,0,2,1
30,3,tool,0,0,animals,2,t_266.png,266,tbd,251.388811141045,259.328599587032,7.89418450355313,tool,0.885605050087179,0,1,1
31,3,tool,0,0,animals,2,t_202.png,202,tbd,261.897352993794,268.836308818645,6.89132609954918,tool,0.736409610552073,0,1,1
32,3,animal,0,0,animals,2,a_061.png,61,tbd,271.405084029058,278.294006656302,6.83673082878549,animal,0.767894832581078,0,2,1
33,3,animal,0,0,animals,2,a_167.png,167,tbd,280.846087622198,286.550728429731,5.66507116820486,animal,0.665445839578751,0,2,1
34,3,tool,0,0,animals,2,t_270.png,270,tbd,289.102804021833,294.407118673123,5.24909489335407,tool,0.503334425673529,0,1,1
35,3,tool,0,0,animals,2,t_327.png,327,tbd,296.942521162309,302.380258508485,5.37545165843042,tool,0.753563581867638,0,1,1
36,3,tool,0,0,animals,2,t_297.png,297,tbd,304.91566647706,310.036495237855,5.06236742633947,tool,0.743598743847542,0,1,1
37,3,animal,0,0,animals,2,a_077.png,77,tbd,312.588569652602,319.560900149976,6.91589697643181,animal,1.01751452864482,0,2,1
38,3,animal,0,0,animals,2,a_083.png,83,tbd,322.112973790776,326.666677014524,4.50420438032125,animal,0.752064030963084,0,2,1
39,3,tool,0,0,animals,2,t_304.png,304,tbd,329.218760455329,334.706562484906,5.44479949616609,tool,0.985391338268528,0,1,1
40,3,animal,0,0,animals,2,a_005.png,5,tbd,337.258627207219,343.430301791639,6.11904477780232,animal,0.596117772412981,0,2,1
41,3,tool,0,0,animals,2,t_351.png,351,tbd,345.982385989795,353.621921480579,7.59991018756776,tool,0.741865511768992,0,1,1
42,3,tool,0,0,animals,2,t_192.png,192,tbd,356.17400427991,363.813542487642,7.58732744649203,tool,0.686548440666229,0,1,1
43,3,animal,0,0,animals,2,a_039.png,39,tbd,366.348936869483,370.852597192898,4.43624791985281,animal,0.668745300194132,0,2,1
44,3,animal,0,0,animals,2,a_044.png,44,tbd,373.404680019128,378.108504984997,4.64629431406672,animal,0.648232770392497,0,2,1
45,3,animal,0,0,animals,2,a_001.png,1,tbd,380.660579854943,388.60036201042,7.87709775696199,animal,0.593639864597208,0,2,1
46,3,tool,0,0,animals,2,t_330.png,330,tbd,391.152439766978,398.908736449979,7.70651515150585,tool,0.727742446797492,0,1,1
47,3,tool,0,0,animals,2,t_217.png,217,tbd,401.460816942083,408.683351489355,7.16885338539019,tool,0.577407157416019,0,1,1
48,3,animal,0,0,animals,2,a_154.png,154,tbd,411.235429130043,418.874970420944,7.58313651500429,animal,0.587182716437383,0,2,1
49,3,tool,0,0,animals,2,t_212.png,212,tbd,421.410372098999,427.431925671754,5.9676855536296,tool,1.32170031494752,0,1,1
50,3,animal,0,0,animals,2,a_175.png,175,tbd,429.984006136965,437.523464246871,7.47323190353216,animal,0.701464477846457,0,2,1
51,3,animal,0,0,animals,2,a_064.png,64,tbd,440.092222981941,444.412405433231,4.27270440688456,animal,1.03278981566109,0,2,1
52,3,animal,0,0,animals,2,a_176.png,176,tbd,446.96447785318,453.469760711683,6.44568803301297,animal,0.966705099115643,0,2,1
53,3,tool,0,0,animals,2,t_238.png,238,tbd,456.021847475709,463.244379287444,7.16630583738967,tool,0.71951944889588,0,1,1
54,3,tool,0,0,animals,2,t_301.png,301,tbd,465.813136909241,472.485243336127,6.62724855237567,tool,0.773977387445484,0,1,1
55,3,animal,0,0,animals,2,a_107.png,107,tbd,475.020625476256,479.540960185521,4.46171811853978,animal,0.703500644907763,0,2,1
56,3,animal,0,0,animals,2,a_168.png,168,tbd,482.076360688214,487.680911953841,5.55133189123145,animal,0.819847385715548,0,2,1
57,3,animal,0,0,animals,2,a_129.png,129,tbd,490.216305961156,495.003533806175,4.73528563114232,animal,0.873583083364792,0,2,1
58,3,tool,0,0,animals,2,t_219.png,219,tbd,497.555618761675,503.97746818656,6.38670892744022,tool,0.670947816695843,0,1,1
59,3,animal,0,0,animals,2,a_124.png,124,tbd,506.546252869932,511.250073211042,4.65316655292773,animal,0.655643597481685,0,2,1
60,3,tool,0,0,animals,2,t_303.png,303,tbd,513.802160314401,519.840390586545,5.98584151505593,tool,0.64066312979412,0,1,1
