trial,phase,object,toShock,seenBefore,shockedCategory,responseSide,filename,num,name,onsetFixationCross,onsetStimulus,interTrialTime,response,reactionTime,wasShocked,buttonPressed,isResponseCorrect
1,3,animal,0,0,animals,1,a_062.png,62,tbd,0.0175492985545134,5.08836229660665,4.9716694272082,animal,1.25672653434958,0,1,1
2,3,tool,0,0,animals,1,t_295.png,295,tbd,7.65711895911227,13.1282450039434,5.43135427028337,tool,1.29017330723946,0,2,1
3,3,animal,0,0,animals,1,a_124.png,124,tbd,15.6803385237217,20.083923805003,4.36024042614727,animal,1.14077014899885,0,1,1
4,3,animal,0,0,animals,1,a_017.png,17,tbd,22.6360132845148,29.0746000688414,6.38993479289595,animal,1.22149381947384,0,1,1
5,3,animal,0,0,animals,1,a_024.png,24,tbd,31.6266722739747,39.4663983588362,7.78287403622932,animal,1.0341090450238,0,1,1
6,3,tool,0,0,animals,1,t_206.png,206,tbd,42.0351729086433,47.4062209881558,5.32460423357752,tool,1.25860476255548,0,2,1
7,3,animal,0,0,animals,1,a_171.png,171,tbd,49.958295016957,54.3619006557019,4.36088854056712,animal,1.18620777348769,0,1,1
8,3,animal,0,0,animals,1,a_061.png,61,tbd,56.9306520907194,62.3517472166313,5.3589430459591,animal,1.17567279830109,0,1,1
9,3,animal,0,0,animals,1,a_176.png,176,tbd,64.9038266240386,70.7586023814874,5.80144479346527,animal,1.12314814259298,0,1,1
10,3,tool,0,0,animals,1,t_350.png,350,tbd,73.3106829257449,78.6650584554263,5.30582257040512,tool,1.15591874924576,0,2,1
11,3,tool,0,0,animals,1,t_207.png,207,tbd,81.2171447897163,87.1386320460806,5.87072450981163,tool,1.18479397558986,0,2,1
12,3,tool,0,0,animals,1,t_276.png,276,tbd,89.6907180596354,95.7456556603138,5.99985751810137,tool,2.19915117982237,0,2,1
13,3,animal,0,0,animals,1,a_169.png,169,tbd,98.2977369921318,103.969032561065,5.62681299324604,animal,1.2200093757674,0,1,1
14,3,animal,0,0,animals,1,a_127.png,127,tbd,106.504437257438,111.308353298151,4.75854187695149,animal,1.28910609029481,0,1,1
15,3,animal,0,0,animals,1,a_174.png,174,tbd,113.860445214246,119.381605914325,5.47204628506154,animal,1.48707142300191,0,1,1
16,3,tool,0,0,animals,1,t_294.png,294,tbd,121.933686475371,129.740057331343,7.75409711034585,tool,1.20110338546147,0,2,1
17,3,tool,0,0,animals,1,t_344.png,344,tbd,132.308819563892,139.097698249272,6.74697468080692,tool,1.13000484698205,0,2,1
18,3,tool,0,0,animals,1,t_277.png,277,tbd,141.649771129458,149.172553386943,7.48412149403462,tool,1.63935469533681,0,2,1
19,3,animal,0,0,animals,1,a_175.png,175,tbd,151.741344584734,159.063971766311,7.27519126056788,animal,1.04839188894402,0,1,1
20,3,animal,0,0,animals,1,a_092.png,92,tbd,161.616065977927,167.404116585891,5.73562868265691,animal,1.59860389423557,0,1,1
21,3,tool,0,0,animals,1,t_243.png,243,tbd,169.956210347478,175.627496311125,5.63010727540074,tool,1.23553319142593,0,2,1
22,3,tool,0,0,animals,1,t_360.png,360,tbd,178.179580287757,182.800019510189,4.58044281177068,tool,0.965283751818788,0,2,1
23,3,tool,0,0,animals,1,t_216.png,216,tbd,185.352107464947,190.923315250027,5.52394096646853,tool,0.988349329716584,0,2,1
24,3,animal,0,0,animals,1,a_105.png,105,tbd,193.475400284588,198.612920077998,5.07656351668541,animal,1.57805942314008,0,1,1
25,3,tool,0,0,animals,1,t_279.png,279,tbd,201.165009090684,207.636924118477,6.43151268817597,tool,0.924384188063414,0,2,1
26,3,animal,0,0,animals,1,a_043.png,43,tbd,210.205713848627,217.361534793712,7.11567961951969,animal,0.87717787586007,0,1,1
27,3,tool,0,0,animals,1,t_301.png,301,tbd,219.913636533365,227.336347717126,7.37911541174676,tool,0.860749496576318,0,2,1
28,3,animal,0,0,animals,1,a_022.png,22,tbd,229.88843527222,235.776573939427,5.83065404266941,animal,1.06090992756435,0,1,1
29,3,tool,0,0,animals,1,t_251.png,251,tbd,238.328655046229,245.084164486067,6.70179239117245,tool,0.918602500736597,0,2,1
30,3,tool,0,0,animals,1,t_209.png,209,tbd,247.636248271265,252.406810253524,4.72515163726059,tool,1.28538291146833,0,2,1
31,3,animal,0,0,animals,1,a_001.png,1,tbd,254.958891281396,262.398289189499,7.38608841202587,animal,1.15927933888815,0,1,1
32,3,animal,0,0,animals,1,a_126.png,126,tbd,264.950373711887,269.387320653557,4.38167180985658,animal,1.1294980845887,0,1,1
33,3,animal,0,0,animals,1,a_026.png,26,tbd,271.939405929927,278.644880427368,6.65656485456216,animal,1.03725446636599,0,1,1
34,3,tool,0,0,animals,1,t_188.png,188,tbd,281.180282091031,288.286080112055,7.05955238213026,tool,1.48348797243307,0,2,1
35,3,tool,0,0,animals,1,t_335.png,335,tbd,290.838166142403,295.87559895129,4.98277009327138,tool,1.12933139774395,0,2,1
36,3,animal,0,0,animals,1,a_025.png,25,tbd,298.42768839722,305.033047198474,6.56094662693771,animal,1.99128862205544,0,1,1
37,3,animal,0,0,animals,1,a_057.png,57,tbd,307.601845407102,311.671819474806,4.02105176799132,animal,1.04272319458687,0,1,1
38,3,animal,0,0,animals,1,a_101.png,101,tbd,314.223908863627,318.393975631985,4.12106632700968,animal,0.867828403639578,0,1,1
39,3,tool,0,0,animals,1,t_289.png,289,tbd,320.946066119053,328.785786093147,7.79127587833449,tool,1.27940119083723,0,2,1
40,3,tool,0,0,animals,1,t_309.png,309,tbd,331.337880479412,339.060844131523,7.67567974790162,tool,1.42581518815496,0,2,1
41,3,animal,0,0,animals,1,a_148.png,148,tbd,341.612926600195,346.099917965272,4.43465826771196,animal,1.39607380079906,0,1,1
42,3,tool,0,0,animals,1,t_198.png,198,tbd,348.652000146787,355.040556411863,6.33894233497028,tool,1.05275265674572,0,2,1
43,3,tool,0,0,animals,1,t_283.png,283,tbd,357.592632178668,361.779378069434,4.13964613921997,tool,1.2682335401696,0,2,1
44,3,animal,0,0,animals,1,a_134.png,134,tbd,364.348135136632,372.254586641338,7.86140037253179,animal,0.955417938766914,0,1,1
45,3,animal,0,0,animals,1,a_125.png,125,tbd,374.806678557437,379.026782659432,4.169800694314,animal,1.15150436821932,0,1,1
46,3,animal,0,0,animals,1,a_137.png,137,tbd,381.595547874324,385.98245462932,4.3477287804174,animal,1.28206315098214,0,1,1
47,3,tool,0,0,animals,1,t_227.png,227,tbd,388.534546849362,395.106570985703,6.51308892169827,tool,1.4633779403448,0,2,1
48,3,tool,0,0,animals,1,t_208.png,208,tbd,397.658655828825,402.045562949905,4.35410527499765,tool,1.08864954133605,0,2,1
49,3,animal,0,0,animals,1,a_144.png,144,tbd,404.597642486609,409.268123217265,4.61836553994557,,2.505973975909,0,,0
50,3,tool,0,0,animals,1,t_186.png,186,tbd,411.786849506607,417.541531465155,5.70754016148763,tool,0.970318756408233,0,2,1
51,3,tool,0,0,animals,1,t_286.png,286,tbd,420.093626892551,427.566386635695,7.43593065526973,tool,0.953886105104175,0,2,1
52,3,tool,0,0,animals,1,t_340.png,340,tbd,430.101791315279,435.155909852721,5.00744056697705,tool,0.875624238913588,0,2,1
53,3,animal,0,0,animals,1,a_028.png,28,tbd,437.707993429693,444.280025151176,6.52679286867806,animal,0.91893521615566,0,1,1
54,3,animal,0,0,animals,1,a_054.png,54,tbd,446.832108728147,454.371586593144,7.48512919129802,animal,0.981781708931521,0,1,1
55,3,animal,0,0,animals,1,a_036.png,36,tbd,456.940354170718,464.463155850302,7.47189662163853,animal,0.887566382323712,0,1,1
56,3,tool,0,0,animals,1,t_238.png,238,tbd,467.015242713558,473.070178074111,6.00443949344317,tool,0.892942132493772,0,2,1
57,3,tool,0,0,animals,1,t_242.png,242,tbd,475.622255709932,483.578751733763,7.9136969500027,tool,0.966761302217492,0,2,1
58,3,tool,0,0,animals,1,t_211.png,211,tbd,486.130835327524,491.985607556879,5.80338053061769,tool,0.877194544067606,0,2,1
59,3,animal,0,0,animals,1,a_029.png,29,tbd,494.537690267356,500.008818861286,5.42354919979825,animal,1.21238612987145,0,1,1
60,3,tool,0,0,animals,1,t_256.png,256,tbd,502.560913343274,509.63334515649,7.02505266060597,tool,1.25682564167801,0,2,1
