trial,phase,object,toShock,seenBefore,shockedCategory,responseSide,filename,num,name,onsetFixationCross,onsetStimulus,interTrialTime,response,reactionTime,wasShocked,buttonPressed,isResponseCorrect
1,1,animal,0,0,animals,1,a_108.png,108,tbd,0.0233802735369864,7.92985816752343,7.66679348304659,animal,1.18294814406181,0,1,1
2,1,tool,0,0,animals,1,t_350.png,350,tbd,10.5153128913121,15.2525222929658,4.67676203375534,tool,2.28462639608688,0,2,1
3,1,tool,0,0,animals,1,t_279.png,279,tbd,17.8212936793379,24.9271102934731,7.05060385190412,tool,1.6094610694845,0,2,1
4,1,tool,0,0,animals,1,t_247.png,247,tbd,27.4792001630676,34.0846128611947,6.5534534130095,tool,0.980310024075607,0,2,1
5,1,animal,0,0,animals,1,a_147.png,147,tbd,36.6367064899473,42.591583238855,5.90161916157284,animal,1.00871209551633,0,1,1
6,1,animal,0,0,animals,1,a_103.png,103,tbd,45.1436666890168,51.1819544461328,5.98563820183521,animal,1.27972360989497,0,1,1
7,1,tool,0,0,animals,1,t_181.png,181,tbd,53.7340465608845,61.7239137473634,7.94039471040861,tool,1.1832458018348,0,2,1
8,1,animal,0,0,animals,1,a_025.png,25,tbd,64.2760107863437,71.3317882035922,7.00172442366007,animal,0.835792883461636,0,1,1
9,1,tool,0,0,animals,1,t_318.png,318,tbd,73.900565580182,80.0889554335149,6.14748820167242,tool,0.858963979459986,0,2,1
10,1,animal,0,0,animals,1,a_128.png,128,tbd,82.6410593164446,89.4799783976227,6.77237084152945,animal,0.684300704904672,0,1,1
11,1,tool,0,0,animals,1,t_266.png,266,tbd,92.0487604814834,96.7025675395194,4.61136815160359,tool,1.14010949592375,0,2,1
12,1,animal,0,0,animals,1,a_020.png,20,tbd,99.2379821042114,106.477241853138,7.19070095746566,animal,0.921843469885516,0,1,1
13,1,tool,0,0,animals,1,t_335.png,335,tbd,109.046018182533,113.366199654999,4.27007018188214,tool,1.0841984113431,0,2,1
14,1,animal,0,0,animals,1,a_130.png,130,tbd,115.918311938168,123.224289207487,7.23785005069677,animal,0.845531327488516,0,1,1
15,1,tool,0,0,animals,1,t_294.png,294,tbd,125.776391609308,132.231667434981,6.39219278665224,tool,2.1936082863399,0,2,1
16,1,animal,0,0,animals,1,a_070.png,70,tbd,134.783764596536,140.688593889688,5.85444197330264,animal,0.773988323152025,0,1,1
17,1,tool,0,0,animals,1,t_324.png,324,tbd,143.224010491977,149.228930748719,5.95309819506589,tool,0.781041597360399,0,2,1
18,1,tool,0,0,animals,1,t_332.png,332,tbd,151.781021443853,159.804257107013,7.96450147440067,,2.50377651389317,0,,0
19,1,tool,0,0,animals,1,t_345.png,345,tbd,162.322986419264,166.509745656514,4.14767133182187,tool,0.760063845118566,0,2,1
20,1,animal,0,0,animals,1,a_132.png,132,tbd,169.061838629696,174.699783016499,5.58133641150874,animal,0.798295129078724,0,1,1
21,1,animal,0,0,animals,1,a_079.png,79,tbd,177.251883687363,182.773067720303,5.46952048843574,animal,0.785388471230817,0,1,1
22,1,animal,0,0,animals,1,a_112.png,112,tbd,185.34183750769,192.847986690869,7.44557121358826,animal,0.723881106586759,0,1,1
23,1,tool,0,0,animals,1,t_238.png,238,tbd,195.400074315307,201.138115929667,5.67760312126989,tool,0.745147771724533,0,2,1
24,1,animal,0,0,animals,1,a_055.png,55,tbd,203.690206652993,207.926995144292,4.18793415062016,animal,0.812539376921904,0,1,1
25,1,animal,0,0,animals,1,a_003.png,3,tbd,210.479103522235,216.667496700811,6.13336183385259,animal,0.910621293096028,0,1,1
26,1,tool,0,0,animals,1,t_306.png,306,tbd,219.219584429029,226.95925924886,7.69035396892042,tool,0.978156998764007,0,2,1
27,1,animal,0,0,animals,1,a_119.png,119,tbd,229.511359698068,233.981679056886,4.43471717961383,animal,0.935033956236566,0,1,1
28,1,animal,0,0,animals,1,a_016.png,16,tbd,236.533773954489,244.423561006839,7.82025677692491,animal,0.716577525764478,0,1,1
29,1,animal,0,0,animals,1,a_071.png,71,tbd,246.992341180376,252.997260767452,5.9390220875747,animal,0.670283755615401,0,1,1
30,1,tool,0,0,animals,1,t_325.png,325,tbd,255.532675016106,262.304883850056,6.71937155728667,tool,1.78808200880303,0,2,1
31,1,tool,0,0,animals,1,t_258.png,258,tbd,264.856967837912,270.861888906096,5.95991024732181,tool,0.751443092972295,0,2,1
32,1,tool,0,0,animals,1,t_329.png,329,tbd,273.413980388772,278.334681994054,4.87223819952352,tool,0.890902725021988,0,2,1
33,1,animal,0,0,animals,1,a_144.png,144,tbd,280.886771439133,286.975081714827,6.02959236621075,,2.50154908706008,0,,0
34,1,animal,0,0,animals,1,a_136.png,136,tbd,289.493812182751,294.68139378425,5.14529855132442,animal,0.775901404506385,0,1,1
35,1,tool,0,0,animals,1,t_304.png,304,tbd,297.233484295319,304.572826862144,7.29155412532455,tool,0.719944181231767,0,2,1
36,1,animal,0,0,animals,1,a_047.png,47,tbd,307.124934603312,313.913821727876,6.73126584619022,animal,0.67439402016862,0,1,1
37,1,tool,0,0,animals,1,t_322.png,322,tbd,316.465905522268,323.821938161982,7.29780436888964,tool,0.975734700677094,0,2,1
38,1,tool,0,0,animals,1,t_261.png,261,tbd,326.374029102265,333.846809676792,7.41795236861767,tool,0.922201190408941,0,2,1
39,1,tool,0,0,animals,1,t_199.png,199,tbd,336.38222734977,343.204474012676,6.77430156815273,tool,0.784006407309334,0,2,1
40,1,animal,0,0,animals,1,a_031.png,31,tbd,345.756564839783,350.043404503705,4.20827714864026,animal,0.808367662891214,0,1,1
41,1,tool,0,0,animals,1,t_264.png,264,tbd,352.595507858338,357.799464753103,5.16392161654973,tool,0.768727080811459,0,2,1
42,1,animal,0,0,animals,1,a_141.png,141,tbd,360.36854375911,366.340088204923,5.9136010595962,animal,0.671384226793634,0,1,1
43,1,tool,0,0,animals,1,t_342.png,342,tbd,368.892183550536,374.079757855377,5.14497784737243,tool,0.87609305593196,0,2,1
44,1,tool,0,0,animals,1,t_278.png,278,tbd,376.631856634712,383.620910112134,6.92555722785237,tool,0.76732853651265,0,2,1
45,1,tool,0,0,animals,1,t_215.png,215,tbd,386.173003090015,391.243829030826,5.0196370422783,tool,0.774813790989356,0,2,1
46,1,animal,0,0,animals,1,a_093.png,93,tbd,393.795924692477,401.201975148196,7.35287101654365,animal,0.761097791823886,0,1,1
47,1,tool,0,0,animals,1,t_230.png,230,tbd,403.754073573903,411.527110554761,7.70422450278664,tool,0.924399505787733,0,2,1
48,1,animal,0,0,animals,1,a_169.png,169,tbd,414.079203207207,419.433574534493,5.30513484824061,animal,0.850252444724902,0,1,1
49,1,animal,0,0,animals,1,a_163.png,163,tbd,421.985675955309,426.4059542966,4.37210247758838,animal,0.804202986272685,0,1,1
50,1,animal,0,0,animals,1,a_138.png,138,tbd,428.958047368863,433.244889395819,4.2276716394978,animal,0.684529281707,0,1,1
51,1,tool,0,0,animals,1,t_188.png,188,tbd,435.796982048264,440.267309642457,4.41587052073838,tool,0.727411993351325,0,2,1
52,1,tool,0,0,animals,1,t_338.png,338,tbd,442.819399299794,450.742553130759,7.87897434267792,tool,0.986644687461649,0,2,1
53,1,tool,0,0,animals,1,t_331.png,331,tbd,453.277972199861,461.251168034058,7.92639031004832,tool,0.933514734874734,0,2,1
54,1,animal,0,0,animals,1,a_123.png,123,tbd,463.8032591866,468.7072777799,4.85572613588989,animal,0.766697963423667,0,1,1
55,1,animal,0,0,animals,1,a_178.png,178,tbd,471.259372036029,475.963213399616,4.64815412305192,animal,0.870085294151977,0,1,1
56,1,animal,0,0,animals,1,a_162.png,162,tbd,478.515315768545,485.387597774798,6.82534120364224,animal,0.584095285293188,0,1,1
57,1,tool,0,0,animals,1,t_293.png,293,tbd,487.93970422832,493.360804509344,5.3580412692187,tool,0.709204618822696,0,2,1
58,1,animal,0,0,animals,1,a_036.png,36,tbd,495.91289929377,501.017071811481,5.05102013981983,animal,0.793308319263815,0,1,1
59,1,animal,0,0,animals,1,a_026.png,26,tbd,503.569172166307,507.872694427092,4.24562208332285,animal,0.759994032992836,0,1,1
60,1,tool,0,0,animals,1,t_349.png,349,tbd,510.424778848862,514.711627932025,4.23888753841516,tool,0.749358615635174,0,2,1
