trial,phase,object,toShock,seenBefore,shockedCategory,responseSide,filename,num,name,onsetFixationCross,onsetStimulus,interTrialTime,response,reactionTime,wasShocked,buttonPressed,isResponseCorrect
1,2,tool,0,0,animals,1,t_239.png,239,tbd,0.0262992897551158,7.74925570492633,7.60889565898352,0,0.982385838051414,0,2,1
2,2,animal,1,0,animals,1,a_059.png,59,tbd,12.3362984085725,21.7940012517593,9.39599673437638,1,0.716171011676124,1,1,1
3,2,animal,0,0,animals,1,a_132.png,132,tbd,26.5478516424027,34.4876520702746,7.87734551813281,1,1.01707989007991,0,1,0
4,2,animal,1,0,animals,1,a_121.png,121,tbd,39.0580206861905,47.3314288894417,8.19519015687895,1,2.04174729241095,1,1,1
5,2,tool,0,0,animals,1,t_214.png,214,tbd,52.0852841157066,60.0417681915405,7.88041527294355,0,1.00388102533725,0,2,1
6,2,tool,0,0,animals,1,t_246.png,246,tbd,64.5954564901549,73.1691008553935,8.50723165705462,0,0.871938440710437,0,2,1
7,2,tool,0,0,animals,1,t_275.png,275,tbd,77.7061117974263,85.0287480129646,7.26036961344876,0,0.888805191319989,0,2,1
8,2,animal,1,0,animals,1,a_039.png,39,tbd,89.5824426770705,97.0051109721499,7.35759705351066,1,1.18592570996589,1,1,1
9,2,tool,0,0,animals,1,t_304.png,304,tbd,101.775691281424,110.032402724419,8.2070569173222,0,0.844052810036374,0,2,1
10,2,animal,1,0,animals,1,a_105.png,105,tbd,114.586095624018,121.341598994301,6.68669287352857,0,1.9342563171158,1,2,0
11,2,animal,1,0,animals,1,a_045.png,45,tbd,126.112132094993,134.302132223538,8.11529879518292,1,1.13830460438294,1,1,1
12,2,tool,0,0,animals,1,t_242.png,242,tbd,139.039314916547,148.13004579737,9.00834135992974,0,0.898838292614528,0,2,1
13,2,tool,0,0,animals,1,t_257.png,257,tbd,152.683742916033,159.055598644538,6.30549752078703,0,0.981759899403187,0,2,1
14,2,animal,0,0,animals,1,a_113.png,113,tbd,163.625965755491,171.882693468928,8.18867623689488,1,0.680109765746238,0,1,0
15,2,tool,0,0,animals,1,t_184.png,184,tbd,176.436386270127,185.777332172473,9.27265650115029,0,0.666020455195394,0,2,1
16,2,tool,0,0,animals,1,t_297.png,297,tbd,190.331008863132,199.254944725519,8.85597004669683,0,0.653928433825058,0,2,1
17,2,tool,0,0,animals,1,t_309.png,309,tbd,203.791954014674,209.963654855535,6.08774960216459,0,0.673636141664247,0,2,1
18,2,animal,1,0,animals,1,a_130.png,130,tbd,214.517345609012,221.156083415517,6.55735223252502,1,0.588609145777809,1,1,1
19,2,animal,1,0,animals,1,a_091.png,91,tbd,225.909943551516,235.934769038566,9.96275167324763,1,0.878421884255658,1,1,1
20,2,tool,0,0,animals,1,t_261.png,261,tbd,240.688638611173,247.811080748543,7.06843861897745,0,0.782522004132261,0,2,1
21,2,animal,1,0,animals,1,a_118.png,118,tbd,252.364780630198,260.905062535443,8.4714842216723,1,0.761023708211724,1,1,1
22,2,tool,0,0,animals,1,t_232.png,232,tbd,265.658922732942,272.831427853282,7.09533559789458,0,1.17823813032737,0,2,1
23,2,animal,1,0,animals,1,a_026.png,26,tbd,277.385120444756,286.692696090762,9.23593192485087,1,0.638467685710566,1,1,1
24,2,animal,0,0,animals,1,a_032.png,32,tbd,291.429867434741,298.819230112751,7.3021519958116,1,0.636445465317593,0,1,0
25,2,animal,1,0,animals,1,a_168.png,168,tbd,303.372911022163,312.530369438366,9.08446686524546,1,0.813772549632631,1,1,1
26,2,tool,0,0,animals,1,t_183.png,183,tbd,317.284227773269,323.606043475475,6.25930161680033,0,0.630445492372019,0,2,1
27,2,animal,0,0,animals,1,a_023.png,23,tbd,328.159732970616,335.932737627876,7.69790147128296,1,0.803262379822627,0,1,0
28,2,tool,0,0,animals,1,t_216.png,216,tbd,340.486429553283,349.343638731481,8.78741847518187,0,0.688905583640008,0,2,1
29,2,tool,0,0,animals,1,t_336.png,336,tbd,353.897331939826,363.438427832696,9.47901778377616,0,0.862651664303485,0,2,1
30,2,animal,0,0,animals,1,a_064.png,64,tbd,367.992120720306,376.76593197599,8.70643266293181,1,0.947658935157961,0,1,0
31,2,tool,0,0,animals,1,t_278.png,278,tbd,381.319619571632,388.942491369498,7.55673422737237,0,0.66449532417937,0,2,1
32,2,animal,1,0,animals,1,a_075.png,75,tbd,393.512865117171,402.019797810639,8.44441695580805,1,0.874636511060089,1,1,1
33,2,animal,1,0,animals,1,a_068.png,68,tbd,406.773653851196,415.063733020932,8.21743380129794,1,1.08030703755867,1,1,1
34,2,tool,0,0,animals,1,t_326.png,326,tbd,419.817582856518,426.189448749823,6.29783120062477,0,0.644989568230812,0,2,1
35,2,tool,0,0,animals,1,t_356.png,356,tbd,430.743135395564,437.315141287721,6.51808105102597,0,0.662678620350562,0,2,1
36,2,animal,1,0,animals,1,a_148.png,148,tbd,441.868863447677,451.526702601421,9.60678928243291,0,1.20573340156989,1,2,0
37,2,tool,0,0,animals,1,t_331.png,331,tbd,456.28056144187,463.653226927256,7.30974633560003,0,0.644643297686343,0,2,1
38,2,animal,1,0,animals,1,a_004.png,4,tbd,468.206920542436,474.762265175947,6.48848704727441,0,1.58694827015279,1,2,0
39,2,animal,1,0,animals,1,a_024.png,24,tbd,479.499437087283,486.638592724928,7.07512208369584,1,1.00414691445803,1,1,1
40,2,animal,1,0,animals,1,a_044.png,44,tbd,491.392440796319,498.414829661358,6.95278631140221,1,0.83440177796183,1,1,1
41,2,tool,0,0,animals,1,t_316.png,316,tbd,503.168689710947,511.7256547952,8.48818144879276,0,0.585939349595719,0,2,1
42,2,tool,0,0,animals,1,t_310.png,310,tbd,516.262661765104,525.019788139394,8.68490110252505,0,0.652410346674515,0,2,1
43,2,animal,0,0,animals,1,a_061.png,61,tbd,529.556802288775,537.546640251177,7.92422148741903,1,0.913880666983459,0,1,0
44,2,animal,1,0,animals,1,a_087.png,87,tbd,542.100333632345,548.83916261876,6.65941780957672,1,0.851833169672318,1,1,1
45,2,animal,1,0,animals,1,a_165.png,165,tbd,553.593014242833,560.782205145266,7.11553382679398,1,0.71426757415793,1,1,1
46,2,tool,0,0,animals,1,t_250.png,250,tbd,565.536060692266,573.04217393332,7.43945409809356,0,0.633810505913061,0,2,1
47,2,animal,0,0,animals,1,a_017.png,17,tbd,577.595857618333,587.437208670344,9.77903929742793,1,0.777255761935521,0,1,0
48,2,animal,0,0,animals,1,a_167.png,167,tbd,591.990891343952,599.413614927793,7.34363453015676,1,1.04837688000043,0,1,0
49,2,animal,0,0,animals,1,a_134.png,134,tbd,603.967293925098,611.139799242857,7.10918845244262,1,0.838748412395944,0,1,0
50,2,tool,0,0,animals,1,t_228.png,228,tbd,615.693503516397,622.082019097303,6.32373879948044,0,0.662747874457637,0,2,1
51,2,tool,0,0,animals,1,t_325.png,325,tbd,626.635746475426,633.524661827923,6.83409901433043,0,0.713635121794141,0,2,1
52,2,animal,0,0,animals,1,a_172.png,172,tbd,638.078362030312,644.850550726032,6.69820339633661,1,1.12409615301112,0,1,0
53,2,animal,1,0,animals,1,a_073.png,73,tbd,649.40423806244,655.759415422959,6.27647556964454,1,0.858678315626094,1,1,1
54,2,tool,0,0,animals,1,t_266.png,266,tbd,660.513272487224,669.437206326487,8.86034457549595,0,0.718425407139875,0,2,1
55,2,tool,0,0,animals,1,t_240.png,240,tbd,673.974214653443,680.763081828158,6.72729351671602,0,0.769902053958504,0,2,1
56,2,tool,0,0,animals,1,t_226.png,226,tbd,685.316767055345,694.590991244739,9.20633416702918,0,1.03651702139905,0,2,1
57,2,animal,1,0,animals,1,a_025.png,25,tbd,699.144678420933,705.399766982297,6.18690364024692,0,1.61720854660416,1,2,0
58,2,tool,0,0,animals,1,t_329.png,329,tbd,710.153623614815,718.960801586765,8.72450945009735,0,0.592592572847934,0,2,1
59,2,tool,0,0,animals,1,t_274.png,274,tbd,723.514496090351,729.602789103126,6.0110463771835,0,0.639041060760064,0,2,1
60,2,tool,0,0,animals,1,t_199.png,199,tbd,734.139795456162,741.028744645404,6.81574051500918,0,0.758588640675953,0,2,1
