trial,phase,object,toShock,seenBefore,shockedCategory,responseSide,filename,num,name,onsetFixationCross,onsetStimulus,interTrialTime,response,reactionTime,wasShocked,buttonPressed,isResponseCorrect
1,1,animal,0,0,animals,2,a_011.png,11,tbd,0.0189292010478539,7.84190722855885,7.60238274054491,animal,0.830628205188873,0,2,1
2,1,tool,0,0,animals,2,t_338.png,338,tbd,10.4273259736402,15.8817346561873,5.43539601849865,tool,1.10822993812917,0,1,1
3,1,tool,0,0,animals,2,t_269.png,269,tbd,18.4171084138293,26.0399159942907,7.57515709333145,tool,0.777040245900935,0,1,1
4,1,tool,0,0,animals,2,t_252.png,252,tbd,28.5753072031328,34.1131030108996,5.51201525499994,tool,0.845963477311329,0,1,1
5,1,animal,0,0,animals,2,a_142.png,142,tbd,36.6484837367938,44.4547662296898,7.78619128452919,animal,0.62663958025496,0,2,1
6,1,tool,0,0,animals,2,t_310.png,310,tbd,46.9901517268169,53.7122489929126,6.69451641471872,tool,0.789644131893169,0,1,1
7,1,animal,0,0,animals,2,a_016.png,16,tbd,56.2476337035764,63.1865546102761,6.89099521026285,animal,0.661429953500146,0,2,1
8,1,tool,0,0,animals,2,t_342.png,342,tbd,65.7219289739691,73.3781089246095,7.60982396854588,tool,0.638340173025085,0,1,1
9,1,animal,0,0,animals,2,a_112.png,112,tbd,75.9134829017527,81.0342793454791,5.06639786970488,animal,0.612377449034739,0,2,1
10,1,tool,0,0,animals,2,t_313.png,313,tbd,83.5863458958054,87.8564496273781,4.24300178409685,tool,0.846352710506721,0,1,1
11,1,animal,0,0,animals,2,a_107.png,107,tbd,90.3918206828469,98.1480843343669,7.72990114835532,animal,0.820993825307255,0,2,1
12,1,animal,0,0,animals,2,a_052.png,52,tbd,100.666789507628,105.987736868789,5.26446091151762,animal,0.754707390272188,0,2,1
13,1,tool,0,0,animals,2,t_237.png,237,tbd,108.539802325283,116.379466041249,7.81167189790263,tool,0.561203539595454,0,1,1
14,1,tool,0,0,animals,2,t_275.png,275,tbd,118.914832281384,124.452639661922,5.5029606375017,tool,0.740519686747234,0,1,1
15,1,animal,0,0,animals,2,a_104.png,104,tbd,126.988023959642,132.842730400078,5.81959992564934,animal,0.882464212510854,0,2,1
16,1,animal,0,0,animals,2,a_095.png,95,tbd,135.394799428398,142.417099244549,7.00486921430197,animal,0.697366089216871,0,2,1
17,1,animal,0,0,animals,2,a_160.png,160,tbd,144.96916756993,151.908104499901,6.89508165166392,animal,0.817607454544486,0,2,1
18,1,tool,0,0,animals,2,t_290.png,290,tbd,154.426787621786,161.248970021368,6.77653537281692,tool,0.635434382805556,0,1,1
19,1,animal,0,0,animals,2,a_169.png,169,tbd,163.801045530159,168.87179637104,5.03984047643605,animal,0.731962423851314,0,2,1
20,1,tool,0,0,animals,2,t_213.png,213,tbd,171.423863747587,176.944966925041,5.47909810067044,tool,0.66687657920761,0,1,1
21,1,animal,0,0,animals,2,a_048.png,48,tbd,179.49704055788,186.65280605805,7.11196136034562,animal,0.694101004195431,0,2,1
22,1,tool,0,0,animals,2,t_245.png,245,tbd,189.188201225603,197.211312899426,7.98740512163585,tool,0.685306930643605,0,1,1
23,1,animal,0,0,animals,2,a_167.png,167,tbd,199.746702038874,207.102632827976,7.31292168434899,animal,0.869974353678117,0,2,1
24,1,tool,0,0,animals,2,t_272.png,272,tbd,209.638015372692,214.875565090271,5.18918087010282,tool,0.633455356760123,0,1,1
25,1,animal,0,0,animals,2,a_128.png,128,tbd,217.427630748893,221.597649412797,4.1399289861709,animal,0.706714700933389,0,2,1
26,1,tool,0,0,animals,2,t_347.png,347,tbd,224.14971750097,230.938526524408,6.73666733432166,tool,0.558095679083635,0,1,1
27,1,animal,0,0,animals,2,a_088.png,88,tbd,233.490582969649,240.229357264417,6.68547689178302,animal,0.628601765828648,0,2,1
28,1,tool,0,0,animals,2,t_206.png,206,tbd,242.81477705522,249.486799980152,6.62138665722711,tool,0.64446148403772,0,1,1
29,1,animal,0,0,animals,2,a_087.png,87,tbd,252.038873287915,259.795123917019,7.70956860183045,animal,0.780470376632707,0,2,1
30,1,tool,0,0,animals,2,t_271.png,271,tbd,262.363877135706,266.667326765984,4.25936374933108,tool,0.723469359950059,0,1,1
31,1,tool,0,0,animals,2,t_214.png,214,tbd,269.236078301826,276.391841381132,7.09033129295835,tool,0.673301356148727,0,1,1
32,1,tool,0,0,animals,2,t_190.png,190,tbd,278.943918212612,283.180664121238,4.19215099695086,tool,0.590630365590869,0,1,1
33,1,animal,0,0,animals,2,a_131.png,131,tbd,285.732722868739,292.604924179857,6.79261142044137,animal,0.674595657621239,0,2,1
34,1,tool,0,0,animals,2,t_247.png,247,tbd,295.156996112479,299.944188093817,4.7224971860664,tool,0.704651607504275,0,1,1
35,1,animal,0,0,animals,2,a_031.png,31,tbd,302.479566851214,309.084889424526,6.50844525915159,animal,0.594169071026045,0,2,1
36,1,animal,0,0,animals,2,a_057.png,57,tbd,311.653634031873,318.192224400131,6.47031975545272,animal,0.615172401714972,0,2,1
37,1,tool,0,0,animals,2,t_315.png,315,tbd,320.760974200675,327.36630698899,6.54284875916442,tool,0.578365977508156,0,1,1
38,1,animal,0,0,animals,2,a_125.png,125,tbd,329.918358790289,336.123369599048,6.13982511105989,animal,0.596487379822975,0,2,1
39,1,tool,0,0,animals,2,t_321.png,321,tbd,338.692112101921,345.180674121083,6.43234554750302,tool,0.475595674138958,0,1,1
40,1,animal,0,0,animals,2,a_082.png,82,tbd,347.732725346733,354.705020279729,6.89944397885214,animal,0.63853352206047,0,2,1
41,1,animal,0,0,animals,2,a_121.png,121,tbd,357.257073609853,362.060949645246,4.73872017548205,animal,0.486840329997221,0,2,1
42,1,animal,0,0,animals,2,a_165.png,165,tbd,364.61301679327,368.983205816357,4.31085722057201,animal,0.636802259693013,0,2,1
43,1,tool,0,0,animals,2,t_318.png,318,tbd,371.518585619476,375.771949463778,4.20436398016116,tool,0.579297432732574,0,1,1
44,1,tool,0,0,animals,2,t_328.png,328,tbd,378.324071873714,384.278878508709,5.89423528574246,tool,0.561594174326046,0,1,1
45,1,animal,0,0,animals,2,a_020.png,20,tbd,386.830940204278,391.134407874434,4.23727038603503,animal,0.59427855514059,0,2,1
46,1,tool,0,0,animals,2,t_297.png,297,tbd,393.686458779352,398.657131336395,4.91027801595699,tool,0.634966996403818,0,1,1
47,1,tool,0,0,animals,2,t_326.png,326,tbd,401.209193814084,406.763676114477,5.50088734646542,tool,0.552510527583536,0,1,1
48,1,animal,0,0,animals,2,a_025.png,25,tbd,409.315740841638,417.372225460955,7.98937471655763,animal,0.592286427163572,0,2,1
49,1,animal,0,0,animals,2,a_029.png,29,tbd,419.924288175852,424.161038864732,4.18097157998537,animal,0.486683724568593,0,2,1
50,1,tool,0,0,animals,2,t_284.png,284,tbd,426.69642044725,431.150010119117,4.39745633856103,tool,0.622932613096054,0,1,1
51,1,tool,0,0,animals,2,t_282.png,282,tbd,433.685392022367,441.725215399075,7.98852879989941,tool,0.584121033819429,0,1,1
52,1,animal,0,0,animals,2,a_049.png,49,tbd,444.29395218589,450.582348129655,6.23659301413376,animal,0.670211878632472,0,2,1
53,1,tool,0,0,animals,2,t_327.png,327,tbd,453.134415717017,457.204365859719,4.01124840349095,tool,0.848411348757963,0,1,1
54,1,animal,0,0,animals,2,a_024.png,24,tbd,459.756417230368,467.145707164771,7.33054785024491,animal,0.61936478680127,0,2,1
55,1,tool,0,0,animals,2,t_203.png,203,tbd,469.714452009326,477.537428551778,7.76779683869973,tool,0.601968618269211,0,1,1
56,1,tool,0,0,animals,2,t_238.png,238,tbd,480.089488292214,487.912470027863,7.77626814200171,tool,0.684283643965728,0,1,1
57,1,animal,0,0,animals,2,a_059.png,59,tbd,490.481204191685,496.619480695259,6.08163231053329,animal,0.512516529762024,0,2,1
58,1,animal,0,0,animals,2,a_177.png,177,tbd,499.171544868822,504.7427045978,5.49995209324201,animal,0.756550500487492,0,2,1
59,1,animal,0,0,animals,2,a_062.png,62,tbd,507.294759061514,512.849239463904,5.49058167399839,animal,0.632241269201359,0,2,1
60,1,tool,0,0,animals,2,t_288.png,288,tbd,515.40130119021,522.640482167368,7.18700811816956,tool,0.664525977638732,0,1,1
