trial,phase,object,toShock,seenBefore,shockedCategory,responseSide,filename,num,name,onsetFixationCross,onsetStimulus,interTrialTime,response,reactionTime,wasShocked,buttonPressed,isResponseCorrect
1,1,animal,0,0,tools,1,a_022.png,22,tbd,0.0242788750217642,4.92817078903454,4.70916040368261,animal,1.10551479761671,0,1,1
2,1,animal,0,0,tools,1,a_099.png,99,tbd,7.53039493550864,13.0515634850756,5.46251214937789,animal,0.828473027475638,0,1,1
3,1,animal,0,0,tools,1,a_066.png,66,tbd,15.6036500474368,20.4575932108114,4.79364743962449,animal,0.791684492413196,0,1,1
4,1,tool,0,0,tools,1,t_319.png,319,tbd,23.0096963000894,29.5483657138786,6.49014439693243,tool,0.617289780067267,0,2,1
5,1,tool,0,0,tools,1,t_216.png,216,tbd,32.1004544669718,39.9568380114185,7.81057943753325,tool,1.242122035178,0,2,1
6,1,tool,0,0,tools,1,t_190.png,190,tbd,42.5256168633259,48.1968995923664,5.61881586504302,tool,1.29955146721613,0,2,1
7,1,animal,0,0,tools,1,a_141.png,141,tbd,50.7489968781833,55.9031955964595,5.09753821516601,animal,0.93954512850587,0,1,1
8,1,tool,0,0,tools,1,t_352.png,352,tbd,58.4552885069552,65.9447203385453,7.42089487022598,tool,0.962410321477591,0,2,1
9,1,tool,0,0,tools,1,t_207.png,207,tbd,68.4968101022441,76.2531421388485,7.69836442988987,tool,0.862581864240838,0,2,1
10,1,tool,0,0,tools,1,t_290.png,290,tbd,78.8052263350623,85.9944233748108,7.12975758800783,tool,1.10755870761068,0,2,1
11,1,animal,0,0,tools,1,a_050.png,50,tbd,88.5464988869617,93.3170617604051,4.70612275516743,animal,0.969196447221293,0,1,1
12,1,tool,0,0,tools,1,t_275.png,275,tbd,95.8691463923328,101.857364469291,5.93115172202785,tool,0.801230349160278,0,2,1
13,1,animal,0,0,tools,1,a_154.png,154,tbd,104.409446511133,110.147456866342,5.67808245541211,animal,0.879656525271457,0,1,1
14,1,tool,0,0,tools,1,t_288.png,288,tbd,112.699547568048,119.88873473157,7.13763988040177,tool,0.836624748992108,0,2,1
15,1,tool,0,0,tools,1,t_320.png,320,tbd,122.424131854646,130.013661513054,7.53006092066025,tool,0.635064909665743,0,2,1
16,1,animal,0,0,tools,1,a_040.png,40,tbd,132.565745642688,137.853389706854,5.22416810100885,animal,0.577653402588567,0,1,1
17,1,animal,0,0,tools,1,a_122.png,122,tbd,140.405483821675,148.311890254612,7.86063273857503,animal,1.01360322932192,0,1,1
18,1,tool,0,0,tools,1,t_262.png,262,tbd,150.880687630449,157.786309561943,6.85036871858615,tool,1.01156376798599,0,2,1
19,1,animal,0,0,tools,1,a_121.png,121,tbd,160.33840387638,164.958838203823,4.57582612856384,animal,0.646304728830728,0,1,1
20,1,animal,0,0,tools,1,a_090.png,90,tbd,167.510925565013,174.383198149697,6.81899099210817,animal,0.814283946836667,0,1,1
21,1,tool,0,0,tools,1,t_188.png,188,tbd,176.935281129548,184.858417535342,7.8556944049335,tool,0.552507427901901,0,2,1
22,1,tool,0,0,tools,1,t_292.png,292,tbd,187.410492980913,194.316125442145,6.84624619536724,tool,1.16024307290036,0,2,1
23,1,animal,0,0,tools,1,a_049.png,49,tbd,196.868212270824,202.155859935681,5.22734263407481,animal,0.944840807656192,0,1,1
24,1,tool,0,0,tools,1,t_208.png,208,tbd,204.707947200074,208.994767959921,4.23822029061984,tool,1.40120719204333,0,2,1
25,1,tool,0,0,tools,1,t_265.png,265,tbd,211.546861663227,217.685191880266,6.08470068708463,tool,1.02094655182395,0,2,1
26,1,tool,0,0,tools,1,t_342.png,342,tbd,220.237277311024,226.04201612759,5.76248373255765,tool,0.905629223410187,0,2,1
27,1,animal,0,0,tools,1,a_104.png,104,tbd,228.577424246458,235.666534521761,7.03660244604909,animal,1.08453192441107,0,1,1
28,1,animal,0,0,tools,1,a_063.png,63,tbd,238.218612188282,242.872418519669,4.59837619666852,animal,1.25591167900734,0,1,1
29,1,tool,0,0,tools,1,t_306.png,306,tbd,245.407811400582,249.611238496521,4.14176164562093,tool,0.982300860314581,0,2,1
30,1,tool,0,0,tools,1,t_280.png,280,tbd,252.163334789912,258.668640496505,6.44551515185148,tool,0.824347579824689,0,2,1
31,1,animal,0,0,tools,1,a_014.png,14,tbd,261.220716535149,267.926190614664,6.65051458100688,animal,1.01908674473157,0,1,1
32,1,tool,0,0,tools,1,t_357.png,357,tbd,270.494948552295,274.931864804433,4.39468195731,tool,0.742711632014334,0,2,1
33,1,animal,0,0,tools,1,a_178.png,178,tbd,277.483992221101,283.655670731965,6.11106076480454,animal,0.819309959746761,0,1,1
34,1,tool,0,0,tools,1,t_236.png,236,tbd,286.224445087553,290.661375694056,4.39736327870167,tool,1.05589771900804,0,2,1
35,1,animal,0,0,tools,1,a_102.png,102,tbd,293.213489972723,297.600379082046,4.32063539573637,animal,0.71617613965941,0,1,1
36,1,animal,0,0,tools,1,a_065.png,65,tbd,300.16916640624,305.189914495516,4.9692300097543,animal,0.870978137570319,0,1,1
37,1,tool,0,0,tools,1,t_257.png,257,tbd,307.742010292633,312.696043651625,4.89953815860712,tool,0.931143445049884,0,2,1
38,1,tool,0,0,tools,1,t_301.png,301,tbd,315.264814805999,319.935291925602,4.6284286142097,tool,0.771248067572742,0,2,1
39,1,animal,0,0,tools,1,a_107.png,107,tbd,322.470688425387,327.975180746269,5.45765686459863,animal,1.137643485441,0,1,1
40,1,animal,0,0,tools,1,a_146.png,146,tbd,330.510587739552,338.133466811228,7.56515560320912,animal,0.805750247292508,0,1,1
41,1,tool,0,0,tools,1,t_189.png,189,tbd,340.685553549127,346.59035035483,5.8582456208668,tool,0.832199673523064,0,2,1
42,1,animal,0,0,tools,1,a_157.png,157,tbd,349.159133678857,353.329183996176,4.11378206728906,animal,0.80866018529332,0,1,1
43,1,animal,0,0,tools,1,a_030.png,30,tbd,355.881287200433,363.354041526537,7.40774701749022,animal,0.996204092854896,0,1,1
44,1,animal,0,0,tools,1,a_062.png,62,tbd,365.906128179678,370.009476922896,4.05538632855921,animal,1.04204381330783,0,1,1
45,1,tool,0,0,tools,1,t_344.png,344,tbd,372.56156636586,379.734081893936,7.1247095611384,tool,0.737803056889106,0,2,1
46,1,tool,0,0,tools,1,t_332.png,332,tbd,382.26947619697,386.456228244348,4.12417889431752,tool,1.19890006275728,0,2,1
47,1,animal,0,0,tools,1,a_097.png,97,tbd,389.00830891247,394.079127449774,5.02224643005174,animal,0.642340223917245,0,1,1
48,1,tool,0,0,tools,1,t_186.png,186,tbd,396.631198677382,404.020560126246,7.34640260807278,tool,0.734315697724242,0,2,1
49,1,animal,0,0,tools,1,a_093.png,93,tbd,406.572644092503,413.778513433368,7.16155076435208,animal,0.958787999166361,0,1,1
50,1,animal,0,0,tools,1,a_025.png,25,tbd,416.330597926118,424.136963653285,7.74448323290994,animal,0.846755482319168,0,1,1
51,1,animal,0,0,tools,1,a_023.png,23,tbd,426.689054609148,434.011687269899,7.27457175701263,animal,0.859405527917033,0,1,1
52,1,tool,0,0,tools,1,t_353.png,353,tbd,436.563782050391,442.118311136034,5.49059706858337,tool,0.626111911776206,0,2,1
53,1,tool,0,0,tools,1,t_303.png,303,tbd,444.670399041898,452.576842413735,7.84891194964954,tool,0.69000903945448,0,2,1
54,1,tool,0,0,tools,1,t_307.png,307,tbd,455.12893022882,462.468253272883,7.28220586073984,tool,0.681918384858363,0,2,1
55,1,animal,0,0,tools,1,a_075.png,75,tbd,465.020322388501,470.775025341953,5.68678021331425,animal,0.808564793757114,0,1,1
56,1,tool,0,0,tools,1,t_316.png,316,tbd,473.327101997868,479.532164985007,6.15019897770719,tool,0.633708288473372,0,2,1
57,1,tool,0,0,tools,1,t_360.png,360,tbd,482.084254107235,488.139180923315,6.0153792411282,tool,0.640133035872395,0,2,1
58,1,animal,0,0,tools,1,a_125.png,125,tbd,490.674599578062,497.61358296546,6.87629754685967,animal,0.728039354151633,0,1,1
59,1,animal,0,0,tools,1,a_073.png,73,tbd,500.165671760933,507.104655420668,6.88417431037426,animal,0.832410463574206,0,1,1
60,1,animal,0,0,tools,1,a_096.png,96,tbd,509.656750037783,515.895170916495,6.18938473476951,animal,0.76617388976797,0,1,1
