trial,phase,object,toShock,seenBefore,shockedCategory,responseSide,filename,num,name,onsetFixationCross,onsetStimulus,interTrialTime,response,reactionTime,wasShocked,buttonPressed,isResponseCorrect
1,3,tool,0,0,tools,2,t_213.png,213,tbd,0.0177990064439655,7.79083568399437,7.68440365826737,tool,1.47644416713229,0,1,1
2,3,animal,0,0,tools,2,a_138.png,138,tbd,10.3596078408809,17.0484222518171,6.63432605947905,animal,0.729227979660209,0,2,1
3,3,animal,0,0,tools,2,a_060.png,60,tbd,19.6005073842789,27.3234991019817,7.6657763794667,animal,0.613563373040961,0,2,1
4,3,tool,0,0,tools,2,t_315.png,315,tbd,29.8756010344623,35.863834598149,5.94514304002652,tool,1.34068958572243,0,1,1
5,3,animal,0,0,tools,2,a_064.png,64,tbd,38.4159169986197,45.3716181702694,6.8979750048956,animal,0.808241680613719,0,2,1
6,3,tool,0,0,tools,2,t_339.png,339,tbd,47.9237116529875,55.4465353223313,7.48123812875197,tool,0.848822783424112,0,1,1
7,3,animal,0,0,tools,2,a_176.png,176,tbd,57.9986347995255,63.7033036578541,5.66598745682968,animal,0.665385446271102,0,2,1
8,3,tool,0,0,tools,2,t_323.png,323,tbd,66.2553922189072,73.4446040448347,7.13843125120938,tool,0.723492786863062,0,1,1
9,3,animal,0,0,tools,2,a_096.png,96,tbd,75.9967046943675,81.3510811658052,5.30468624017746,animal,0.660370097288251,0,2,1
10,3,tool,0,0,tools,2,t_262.png,262,tbd,83.9031849231942,89.3242882360173,5.36283265304486,tool,0.6535299332063,0,1,1
11,3,animal,0,0,tools,2,a_155.png,155,tbd,91.8597056655781,98.6652683418979,6.7548391945187,animal,1.39898548657584,0,2,1
12,3,animal,0,0,tools,2,a_139.png,139,tbd,101.217361603391,107.372407293213,6.10479119116059,animal,0.596170130385872,0,2,1
13,3,tool,0,0,tools,2,t_185.png,185,tbd,109.924499271758,114.09457830077,4.12351662890674,tool,0.584247494931333,0,1,1
14,3,tool,0,0,tools,2,t_282.png,282,tbd,116.646668144775,122.835052016057,6.15242579778512,tool,0.748152220749034,0,1,1
15,3,tool,0,0,tools,2,t_209.png,209,tbd,125.4205165733,129.840795105923,4.3756042355601,tool,0.628785902870732,0,1,1
16,3,animal,0,0,tools,2,a_054.png,54,tbd,132.392893444077,137.880717371121,5.43583405561031,animal,0.674203660291823,0,2,1
17,3,tool,0,0,tools,2,t_288.png,288,tbd,140.432812214465,147.872242246609,7.39582765210951,tool,0.728142252570251,0,1,1
18,3,animal,0,0,tools,2,a_076.png,76,tbd,150.424329911672,158.280772823571,7.80148629549372,animal,0.60803962306818,0,2,1
19,3,animal,0,0,tools,2,a_158.png,158,tbd,160.832860300707,166.637612951072,5.75021478036575,animal,0.880450299493532,0,2,1
20,3,animal,0,0,tools,2,a_166.png,166,tbd,169.189705880734,174.84433984412,5.60093631618326,animal,0.825424497783388,0,2,1
21,3,tool,0,0,tools,2,t_230.png,230,tbd,177.396421116646,184.035189307342,6.58449784498233,tool,0.676783986837108,0,1,1
22,3,animal,0,0,tools,2,a_118.png,118,tbd,186.587291648979,192.708961564196,6.08327122091465,animal,0.600576311924669,0,2,1
23,3,tool,0,0,tools,2,t_238.png,238,tbd,195.261062313242,200.648800966635,5.344713923803,tool,0.608865442802198,0,1,1
24,3,tool,0,0,tools,2,t_348.png,348,tbd,203.200898088071,210.890528364802,7.64743606258792,tool,0.846627893639379,0,1,1
25,3,animal,0,0,tools,2,a_103.png,103,tbd,213.442617899163,221.082199776727,7.59547594095767,animal,0.653370117899613,0,2,1
26,3,tool,0,0,tools,2,t_255.png,255,tbd,223.61762535751,228.621713578348,4.95851010895254,tool,0.985189253180579,0,1,1
27,3,tool,0,0,tools,2,t_231.png,231,tbd,231.173803322832,237.545692992459,6.32549777433876,tool,1.26662438807398,0,1,1
28,3,animal,0,0,tools,2,a_108.png,108,tbd,240.097789361804,246.102703612502,5.96731467497718,animal,0.719988638691575,0,2,1
29,3,animal,0,0,tools,2,a_132.png,132,tbd,248.638109506635,254.409498868936,5.72686515636472,animal,0.532534704503632,0,2,1
30,3,animal,0,0,tools,2,a_106.png,106,tbd,256.978284895184,264.534445894391,7.51035276155011,animal,0.698026966470934,0,2,1
31,3,tool,0,0,tools,2,t_182.png,182,tbd,267.086564328711,273.224903605638,6.08808389422361,tool,0.756968996454816,0,1,1
32,3,animal,0,0,tools,2,a_172.png,172,tbd,275.777007739249,283.666797857266,7.85008823274057,animal,0.793724905099225,0,2,1
33,3,tool,0,0,tools,2,t_350.png,350,tbd,286.235575290571,292.056991706217,5.77384638949018,tool,0.618728395831567,0,1,1
34,3,tool,0,0,tools,2,t_287.png,287,tbd,294.625780707876,300.864216440215,6.19074782605606,tool,0.668055767757323,0,1,1
35,3,tool,0,0,tools,2,t_269.png,269,tbd,303.416308938893,310.722292244951,7.26026295146108,tool,0.563199037103914,0,1,1
36,3,animal,0,0,tools,2,a_016.png,16,tbd,313.274391921179,319.212552586905,5.8967310788529,animal,0.62428704024569,0,2,1
37,3,tool,0,0,tools,2,t_254.png,254,tbd,321.78135340106,327.702865144172,5.87419902472758,tool,0.719416179137625,0,1,1
38,3,animal,0,0,tools,2,a_039.png,39,tbd,330.254967264947,336.827001458176,6.51810859113706,animal,0.65755859688943,0,2,1
39,3,animal,0,0,tools,2,a_066.png,66,tbd,339.379101765142,346.818529386026,7.39159116880024,animal,0.834598021505371,0,2,1
40,3,animal,0,0,tools,2,a_029.png,29,tbd,349.387303644533,355.976035070998,6.53710397830332,animal,0.614450210072391,0,2,1
41,3,tool,0,0,tools,2,t_333.png,333,tbd,358.528124373042,362.881689524482,4.30569666551291,tool,0.747124115296174,0,1,1
42,3,tool,0,0,tools,2,t_307.png,307,tbd,365.433774546334,371.321932856164,5.82817613193029,tool,0.581250199185888,0,1,1
43,3,tool,0,0,tools,2,t_192.png,192,tbd,373.874028893675,379.878945820874,5.95042747835355,tool,1.37161691169968,0,1,1
44,3,animal,0,0,tools,2,a_068.png,68,tbd,382.414358749025,387.702011730347,5.23954082738429,animal,0.958902202521131,0,2,1
45,3,tool,0,0,tools,2,t_277.png,277,tbd,390.254114193693,395.141448044418,4.8288364966807,tool,0.719763403831166,0,1,1
46,3,animal,0,0,tools,2,a_175.png,175,tbd,397.693539547221,404.132141282153,6.39496309707361,animal,0.7054790181719,0,2,1
47,3,tool,0,0,tools,2,t_204.png,204,tbd,406.684231004445,414.373871268406,7.65327215237898,tool,0.716177169255388,0,1,1
48,3,tool,0,0,tools,2,t_281.png,281,tbd,416.925951567624,421.629810897568,4.65057165379634,tool,0.773499490260292,0,1,1
49,3,tool,0,0,tools,2,t_272.png,272,tbd,424.181893265108,431.587968625045,7.35666375300801,tool,0.629831813854253,0,1,1
50,3,animal,0,0,tools,2,a_105.png,105,tbd,434.140060216268,440.511935673963,6.3124930934879,animal,0.571209226549399,0,2,1
51,3,animal,0,0,tools,2,a_043.png,43,tbd,443.064038446948,450.753665206674,7.63784198497974,animal,0.575976126281603,0,2,1
52,3,animal,0,0,tools,2,a_046.png,46,tbd,453.289074816843,459.293994641776,5.95579645747378,animal,0.70403122371863,0,2,1
53,3,tool,0,0,tools,2,t_214.png,214,tbd,461.846083103312,468.101215372291,6.20051827835046,tool,0.98907393864647,0,1,1
54,3,animal,0,0,tools,2,a_150.png,150,tbd,470.653298314719,476.057727476618,5.350312515551,animal,0.948052199066296,0,2,1
55,3,animal,0,0,tools,2,a_111.png,111,tbd,478.609817862576,484.664768423962,6.00562799519003,animal,0.522318266685033,0,2,1
56,3,animal,0,0,tools,2,a_133.png,133,tbd,487.216865744424,492.988233340282,5.73167951543761,animal,0.520336744863016,0,2,1
57,3,tool,0,0,tools,2,t_278.png,278,tbd,495.557022121084,503.063173884653,7.45568577012191,tool,1.22673265908088,0,1,1
58,3,tool,0,0,tools,2,t_215.png,215,tbd,505.615264480741,513.304891417301,7.63302922561363,tool,0.610530309790192,0,1,1
59,3,tool,0,0,tools,2,t_261.png,261,tbd,515.856983760972,522.128786928763,6.22853103470321,tool,0.608020047391619,0,1,1
60,3,animal,0,0,tools,2,a_057.png,57,tbd,524.664198541035,529.718343124336,5.0102138320579,animal,0.478761136266257,0,2,1
