trial,phase,object,toShock,seenBefore,shockedCategory,responseSide,filename,num,name,onsetFixationCross,onsetStimulus,interTrialTime,response,reactionTime,wasShocked,buttonPressed,isResponseCorrect
1,1,animal,0,0,animals,1,a_144.png,144,tbd,0.0185906689566764,7.64148850525453,7.55077670523013,tool,1.32948963268791,0,2,0
2,1,tool,0,0,animals,1,t_270.png,270,tbd,10.2269481993299,16.3986674193166,6.12913901053796,tool,1.3177147218048,0,2,1
3,1,tool,0,0,animals,1,t_348.png,348,tbd,18.950762649245,24.4719371946394,5.47151869976658,tool,0.946730067313183,0,2,1
4,1,tool,0,0,animals,1,t_323.png,323,tbd,27.0240476957206,32.7120399615487,5.64379508821956,tool,1.01103884153781,0,2,1
5,1,animal,0,0,animals,1,a_078.png,78,tbd,35.2641237192802,43.2039526717144,7.8948653792266,animal,0.65450910063737,0,1,1
6,1,animal,0,0,animals,1,a_169.png,169,tbd,45.7560533297274,53.4790457670879,7.6811510766097,animal,0.761924371681744,0,1,1
7,1,animal,0,0,animals,1,a_132.png,132,tbd,56.0311328563967,63.8875646361666,7.8021995681535,animal,0.914830753947172,0,1,1
8,1,tool,0,0,animals,1,t_276.png,276,tbd,66.4563425059532,71.7940372660778,5.28934127152832,tool,0.858742142110714,0,2,1
9,1,animal,0,0,animals,1,a_135.png,135,tbd,74.3461414399753,80.2176135145091,5.82296938024027,animal,0.809537169525356,0,1,1
10,1,tool,0,0,animals,1,t_335.png,335,tbd,82.7697045259793,90.5927781565661,7.77292580627015,tool,0.640792586085809,0,2,1
11,1,tool,0,0,animals,1,t_352.png,352,tbd,93.1448628897342,97.2148264640819,4.02612455504953,tool,0.975110613788274,0,2,1
12,1,animal,0,0,animals,1,a_129.png,129,tbd,99.7836365766125,104.537527914861,4.71082157857847,animal,0.825715079767178,0,1,1
13,1,animal,0,0,animals,1,a_008.png,8,tbd,107.089615669078,112.460678668869,5.32679881794062,animal,0.837922726590477,0,1,1
14,1,tool,0,0,animals,1,t_251.png,251,tbd,114.996096218641,122.085233171425,7.03886024748234,tool,0.847814000606377,0,2,1
15,1,animal,0,0,animals,1,a_040.png,40,tbd,124.637333175744,131.359500246539,6.67612467447522,animal,0.633819769804177,0,1,1
16,1,animal,0,0,animals,1,a_079.png,79,tbd,133.9115921469,141.768026492564,7.80195507883107,animal,0.680773984178813,0,1,1
17,1,tool,0,0,animals,1,t_326.png,326,tbd,144.320117072313,150.241633166688,5.86851748634989,tool,0.894840628157908,0,2,1
18,1,tool,0,0,animals,1,t_271.png,271,tbd,152.793723857421,159.215641995779,6.35010889667327,tool,0.93798062924543,0,2,1
19,1,tool,0,0,animals,1,t_253.png,253,tbd,161.767737126942,168.706752098462,6.89664510397993,tool,0.722305108780347,0,2,1
20,1,animal,0,0,animals,1,a_136.png,136,tbd,171.258854323498,178.581517115794,7.28461193625432,animal,0.785995205305881,0,1,1
21,1,tool,0,0,animals,1,t_215.png,215,tbd,181.133603538185,188.156025452114,6.96703861323016,tool,0.784882656173068,0,2,1
22,1,tool,0,0,animals,1,t_238.png,238,tbd,190.724793687579,197.597088772534,6.82170331295971,tool,0.735215316664835,0,2,1
23,1,animal,0,0,animals,1,a_158.png,158,tbd,200.165865050858,208.172417516726,7.95850188486693,animal,1.05735923127213,0,1,1
24,1,animal,0,0,animals,1,a_066.png,66,tbd,210.724507479441,215.545120332377,4.77913830594456,animal,0.881002775355228,0,1,1
25,1,animal,0,0,animals,1,a_156.png,156,tbd,218.097217437844,225.186351072274,7.04119841993206,animal,0.559191489166551,0,1,1
26,1,tool,0,0,animals,1,t_349.png,349,tbd,227.738447449725,232.825950112492,5.03704698424707,tool,0.636897028876774,0,2,1
27,1,tool,0,0,animals,1,t_301.png,301,tbd,235.378041827542,240.482214128611,5.06299158012723,tool,0.905962297110818,0,2,1
28,1,tool,0,0,animals,1,t_283.png,283,tbd,243.034309223116,248.67226262533,5.58453667217754,tool,0.720280310089947,0,2,1
29,1,animal,0,0,animals,1,a_052.png,52,tbd,251.224342411015,256.145042119455,4.85949980313101,animal,0.630776384616183,0,1,1
30,1,tool,0,0,animals,1,t_320.png,320,tbd,258.713819027031,264.652008718533,5.90318902810244,tool,0.916237640623876,0,2,1
31,1,animal,0,0,animals,1,a_019.png,19,tbd,267.204096966578,275.027160236836,7.77358507409317,animal,0.57353633917046,0,1,1
32,1,tool,0,0,animals,1,t_358.png,358,tbd,277.595946160694,283.767644361715,6.1347277444718,tool,0.745431112125516,0,2,1
33,1,animal,0,0,animals,1,a_062.png,62,tbd,286.319765113145,291.824271389727,5.45837313179494,animal,0.63315081077053,0,1,1
34,1,tool,0,0,animals,1,t_357.png,357,tbd,294.376357923105,301.732382404907,7.31041205994986,tool,0.790536799588153,0,2,1
35,1,animal,0,0,animals,1,a_105.png,105,tbd,304.267796672988,311.123380291454,6.81018997201733,animal,0.635850030224901,0,1,1
36,1,tool,0,0,animals,1,t_290.png,290,tbd,313.692178612055,320.114095356479,6.37640808156604,tool,0.707602290145587,0,2,1
37,1,animal,0,0,animals,1,a_149.png,149,tbd,322.666194447469,329.371687589188,6.64931420845472,animal,0.597400447268228,0,1,1
38,1,tool,0,0,animals,1,t_316.png,316,tbd,331.940459623607,339.513334780773,7.52600606010739,tool,0.697220857104185,0,2,1
39,1,tool,0,0,animals,1,t_355.png,355,tbd,342.06541629335,348.604104246799,6.47675204622762,tool,0.732821658528337,0,2,1
40,1,animal,0,0,animals,1,a_106.png,106,tbd,351.156200821781,359.162750524223,7.95711257465307,animal,1.45962560885891,0,1,1
41,1,tool,0,0,animals,1,t_211.png,211,tbd,361.714853846894,367.886568958405,6.12697735535604,tool,0.743225814996549,0,2,1
42,1,tool,0,0,animals,1,t_181.png,181,tbd,370.438664460189,375.242587346209,4.75664072932564,tool,0.901527680241998,0,2,1
43,1,tool,0,0,animals,1,t_225.png,225,tbd,377.794684032177,384.083164086627,6.24408556707409,tool,0.755312901474099,0,2,1
44,1,animal,0,0,animals,1,a_025.png,25,tbd,386.618575628947,392.056362820305,5.39116648348516,animal,0.597424021918414,0,1,1
45,1,animal,0,0,animals,1,a_121.png,121,tbd,394.608460875765,401.847714369505,7.19419208942458,animal,0.600536685236875,0,1,1
46,1,animal,0,0,animals,1,a_071.png,71,tbd,404.399816298246,412.222881923641,7.78790878651097,animal,0.490843555235188,0,1,1
47,1,tool,0,0,animals,1,t_334.png,334,tbd,414.774972836347,422.447928557487,7.61927977757513,tool,0.611280082390294,0,2,1
48,1,tool,0,0,animals,1,t_205.png,205,tbd,425.016704083353,430.204278243926,5.13885409915059,tool,0.82925157272075,0,2,1
49,1,animal,0,0,animals,1,a_056.png,56,tbd,432.756370427358,439.094889813807,6.29625208876547,animal,0.561996948810702,0,1,1
50,1,tool,0,0,animals,1,t_216.png,216,tbd,441.646985315592,446.083960561442,4.38552954168744,tool,0.581265035143588,0,2,1
51,1,animal,0,0,animals,1,a_037.png,37,tbd,448.636053867955,455.691824888334,7.01455171494043,animal,0.568831428799967,0,1,1
52,1,animal,0,0,animals,1,a_018.png,18,tbd,458.243918576685,463.731742398721,5.44795838797628,animal,0.521211746832705,0,1,1
53,1,animal,0,0,animals,1,a_123.png,123,tbd,466.267157864206,473.573143555714,7.252292937665,animal,0.569278943068639,0,1,1
54,1,tool,0,0,animals,1,t_266.png,266,tbd,476.141906980129,481.796537951514,5.61454861658304,tool,0.816180798947244,0,2,1
55,1,animal,0,0,animals,1,a_075.png,75,tbd,484.348634193539,492.305153914227,7.90323588574476,animal,1.15910799681114,0,1,1
56,1,tool,0,0,animals,1,t_280.png,280,tbd,494.85723668531,498.927235611001,4.01305527282992,tool,0.548277102680004,0,2,1
57,1,animal,0,0,animals,1,a_173.png,173,tbd,501.479334517684,508.818664171635,7.29221186396446,animal,0.53028422888201,0,1,1
58,1,animal,0,0,animals,1,a_012.png,12,tbd,511.370761499074,519.410686175648,7.98143655450628,animal,0.573743660306718,0,1,1
59,1,animal,0,0,animals,1,a_167.png,167,tbd,521.962767503917,529.85256210749,7.83926201056291,animal,0.587310021193844,0,1,1
60,1,tool,0,0,animals,1,t_303.png,303,tbd,532.404656536079,538.376220918641,5.9285445328083,tool,0.611954801461252,0,2,1
