trial,phase,object,toShock,seenBefore,shockedCategory,responseSide,filename,num,name,onsetFixationCross,onsetStimulus,interTrialTime,response,reactionTime,wasShocked,buttonPressed,isResponseCorrect
1,3,tool,0,0,animals,1,t_191.png,191,tbd,0.0175600102265889,4.93826765859922,4.82910308902009,tool,1.02480880952498,0,2,1
2,3,animal,0,0,animals,1,a_179.png,179,tbd,7.50703261387753,13.3117949487132,5.7576893895635,animal,1.0136104143894,0,1,1
3,3,tool,0,0,animals,1,t_183.png,183,tbd,15.8638856631114,20.3842493824195,4.4666365920053,tool,0.687416992375802,0,2,1
4,3,tool,0,0,animals,1,t_305.png,305,tbd,22.919665095822,29.6918802678483,6.70788587675449,tool,0.67121967820276,0,2,1
5,3,animal,0,0,animals,1,a_118.png,118,tbd,32.2439671246102,39.4665321294378,7.18195083561674,animal,0.635006380456616,0,1,1
6,3,animal,0,0,animals,1,a_175.png,175,tbd,42.0353168737456,47.7399818258818,5.6538921282867,animal,0.735928280595544,0,1,1
7,3,animal,0,0,animals,1,a_084.png,84,tbd,50.3087616053563,55.8633040312307,5.51150554287933,animal,0.727980525745807,0,1,1
8,3,tool,0,0,animals,1,t_186.png,186,tbd,58.4154088272953,64.6371617399345,6.17961155745414,tool,0.70851161794053,0,2,1
9,3,animal,0,0,animals,1,a_155.png,155,tbd,67.1892568172225,71.6929489625982,4.4603413649678,animal,1.66125984085375,0,1,1
10,3,animal,0,0,animals,1,a_099.png,99,tbd,74.2450406392018,81.968031274846,7.67754614558901,animal,0.710408674578503,0,1,1
11,3,animal,0,0,animals,1,a_054.png,54,tbd,84.5201158776654,89.3907873412245,4.81038562349356,animal,0.533962692610658,0,1,1
12,3,tool,0,0,animals,1,t_207.png,207,tbd,91.9428708280539,97.1304282942801,5.15459231048274,tool,0.570670742163202,0,2,1
13,3,animal,0,0,animals,1,a_077.png,77,tbd,99.699223280204,107.121944575196,7.37596650416593,animal,0.887771502242686,0,1,1
14,3,tool,0,0,animals,1,t_196.png,196,tbd,109.674055390569,117.04676444178,7.32824821437946,tool,1.2182048220202,0,2,1
15,3,tool,0,0,animals,1,t_338.png,338,tbd,119.615537406688,124.486200082942,4.83247916412726,tool,0.748040357979335,0,2,1
16,3,tool,0,0,animals,1,t_310.png,310,tbd,127.038278565396,134.81131502553,7.72641501493124,tool,0.761423892854509,0,2,1
17,3,animal,0,0,animals,1,a_050.png,50,tbd,137.36340680319,144.402503260437,6.99423147990484,animal,0.632641465592314,0,1,1
18,3,animal,0,0,animals,1,a_087.png,87,tbd,146.954586909833,151.691798260301,4.69524843609315,animal,0.776671395760786,0,1,1
19,3,tool,0,0,animals,1,t_273.png,273,tbd,154.243900090638,158.397294258855,4.11425297758391,tool,0.82841169870153,0,2,1
20,3,animal,0,0,animals,1,a_131.png,131,tbd,160.94939482382,166.337145390273,5.33608289878767,animal,0.80792543159987,0,1,1
21,3,animal,0,0,animals,1,a_174.png,174,tbd,168.889231460569,174.260302223774,5.31889106621446,animal,0.652364054156351,0,1,1
22,3,tool,0,0,animals,1,t_336.png,336,tbd,176.812384757177,182.500374044896,5.63877715653733,tool,0.645438961746549,0,2,1
23,3,animal,0,0,animals,1,a_092.png,92,tbd,185.052466986868,189.62287578814,4.5190991799809,animal,0.666192029071681,0,1,1
24,3,tool,0,0,animals,1,t_206.png,206,tbd,192.174960610642,199.33082407375,7.12568981069086,tool,0.6812875862488,0,2,1
25,3,animal,0,0,animals,1,a_168.png,168,tbd,201.866231575419,209.288977857126,7.37589159985195,animal,0.866556358745584,0,1,1
26,3,animal,0,0,animals,1,a_141.png,141,tbd,211.824393851733,218.179603573433,6.32195500225139,animal,0.760776922950754,0,1,1
27,3,animal,0,0,animals,1,a_146.png,146,tbd,220.731695096252,226.486401681344,5.708229694226,animal,0.84439141716939,0,1,1
28,3,tool,0,0,animals,1,t_342.png,342,tbd,229.055177642724,233.925827884937,4.83057992290633,tool,0.838244278256752,0,2,1
29,3,animal,0,0,animals,1,a_161.png,161,tbd,236.461235672188,241.448658658363,4.9423624504935,animal,1.60579121080809,0,1,1
30,3,animal,0,0,animals,1,a_073.png,73,tbd,244.000755356908,248.554479956885,4.50240638680329,animal,0.698229787289165,0,1,1
31,3,tool,0,0,animals,1,t_330.png,330,tbd,251.106565016646,258.82955733945,7.6636249897482,tool,0.731614209147665,0,2,1
32,3,animal,0,0,animals,1,a_016.png,16,tbd,261.381659398256,266.452474480688,5.0200701865065,animal,0.755988670833176,0,1,1
33,3,animal,0,0,animals,1,a_154.png,154,tbd,269.004570528978,276.293857958579,7.2395627210577,animal,0.804086375639599,0,1,1
34,3,tool,0,0,animals,1,t_360.png,360,tbd,278.829282028713,286.602312412422,7.73423855261624,tool,0.658028941252269,0,2,1
35,3,tool,0,0,animals,1,t_341.png,341,tbd,289.1543969054,296.977477612705,7.77686462523075,tool,0.777362785494915,0,2,1
36,3,tool,0,0,animals,1,t_240.png,240,tbd,299.529570875417,304.333501399353,4.75799589880839,tool,1.17470080077328,0,2,1
37,3,animal,0,0,animals,1,a_032.png,32,tbd,306.885590026752,313.79124620826,6.85388047573978,animal,0.852360771226813,0,1,1
38,3,tool,0,0,animals,1,t_339.png,339,tbd,316.360013628379,323.63264171598,7.23628258109298,tool,0.762382117965899,0,2,1
39,3,animal,0,0,animals,1,a_147.png,147,tbd,326.184737636846,334.157933484676,7.93328858519506,animal,0.629541874724964,0,1,1
40,3,tool,0,0,animals,1,t_241.png,241,tbd,336.710024519805,344.41632699547,7.66051708609415,tool,0.877611208827147,0,2,1
41,3,animal,0,0,animals,1,a_145.png,145,tbd,346.968424774856,354.257728790501,7.24593197632904,animal,0.989575257004617,0,1,1
42,3,tool,0,0,animals,1,t_184.png,184,tbd,356.793136916069,364.699605954262,7.86155068763102,tool,1.47516188046211,0,2,1
43,3,animal,0,0,animals,1,a_065.png,65,tbd,367.251704805705,371.671980865467,4.3746198280976,animal,0.638337363088795,0,1,1
44,3,animal,0,0,animals,1,a_137.png,137,tbd,374.224081988428,381.897029413802,7.63291518126104,animal,0.614562973445572,0,1,1
45,3,tool,0,0,animals,1,t_306.png,306,tbd,384.449124552608,391.755102488401,7.26564740569762,tool,0.891861963064002,0,2,1
46,3,tool,0,0,animals,1,t_288.png,288,tbd,394.307198123686,401.679902346274,7.3307846651617,tool,0.622477648477798,0,2,1
47,3,animal,0,0,animals,1,a_128.png,128,tbd,404.232000116874,410.83740578455,6.55096115477387,animal,0.761407425437937,0,1,1
48,3,animal,0,0,animals,1,a_002.png,2,tbd,413.389488151002,418.877313982495,5.43907616063021,animal,0.676881863193557,0,1,1
49,3,tool,0,0,animals,1,t_250.png,250,tbd,421.429419231095,428.068187501744,6.59259258220141,tool,0.667397146768053,0,2,1
50,3,tool,0,0,animals,1,t_248.png,248,tbd,430.620278106297,434.973845058463,4.31318538856418,tool,0.72802406684059,0,2,1
51,3,tool,0,0,animals,1,t_314.png,314,tbd,437.525935232436,442.396589617856,4.83682838973825,tool,0.821647022978141,0,2,1
52,3,animal,0,0,animals,1,a_100.png,100,tbd,444.932001592264,449.118755182451,4.14310452953037,animal,0.671761723260715,0,1,1
53,3,tool,0,0,animals,1,t_261.png,261,tbd,451.654172060174,455.991050852354,4.29776563350108,tool,0.846751305689395,0,2,1
54,3,tool,0,0,animals,1,t_232.png,232,tbd,458.543148201166,462.696549241064,4.11300472625294,tool,0.946610310700635,0,2,1
55,3,tool,0,0,animals,1,t_286.png,286,tbd,465.248643145245,471.954126889905,6.66069738867296,tool,1.04540194785295,0,2,1
56,3,animal,0,0,animals,1,a_063.png,63,tbd,474.506215359139,478.74302751102,4.18903247702212,animal,0.727757222681248,0,1,1
57,3,tool,0,0,animals,1,t_297.png,297,tbd,481.295112764099,486.916388924023,5.58614840215844,tool,0.683815962591325,0,2,1
58,3,animal,0,0,animals,1,a_113.png,113,tbd,489.468480583044,494.505935180241,4.99117367420963,animal,1.03657654749622,0,1,1
59,3,tool,0,0,animals,1,t_329.png,329,tbd,497.058025363003,504.247228015283,7.14891467806858,tool,0.944717515922093,0,2,1
60,3,tool,0,0,animals,1,t_308.png,308,tbd,506.816016037261,513.07113318731,6.19735192162498,tool,1.00119743323012,0,2,1
