trial,phase,object,toShock,seenBefore,shockedCategory,responseSide,filename,num,name,onsetFixationCross,onsetStimulus,interTrialTime,response,reactionTime,wasShocked,buttonPressed,isResponseCorrect
1,1,animal,0,0,animals,1,a_091.png,91,tbd,0.0128789983864408,5.80070956773125,5.70460439763606,animal,1.11312730569625,0,1,1
2,1,animal,0,0,animals,1,a_014.png,14,tbd,8.38624912541127,14.2910103806062,5.81897208367344,animal,0.895992703357479,0,1,1
3,1,tool,0,0,animals,1,t_252.png,252,tbd,16.843022507499,24.3991343553935,7.46858173439744,tool,0.550218752905494,0,2,1
4,1,animal,0,0,animals,1,a_052.png,52,tbd,26.9678270535951,31.4047667790437,4.35383322721204,animal,0.414797003584681,0,1,1
5,1,tool,0,0,animals,1,t_254.png,254,tbd,33.973452870152,38.2768926562858,4.23806375699338,tool,0.421853007923346,0,2,1
6,1,tool,0,0,animals,1,t_261.png,261,tbd,40.8456263376575,45.2825829465583,4.37157388334541,tool,0.658417889237171,0,2,1
7,1,animal,0,0,animals,1,a_093.png,93,tbd,47.834587314399,52.4049735012813,4.50358183081202,animal,0.453153442358598,0,1,1
8,1,tool,0,0,animals,1,t_206.png,206,tbd,54.957014946558,61.0285623201053,6.00621612517892,tool,0.491924331290647,0,2,1
9,1,animal,0,0,animals,1,a_046.png,46,tbd,63.5972755149705,69.2351560089446,5.58202349855241,animal,0.368539660790702,0,1,1
10,1,animal,0,0,animals,1,a_119.png,119,tbd,71.7871924057254,79.5767937017954,7.74173863328307,animal,0.553186614561128,0,1,1
11,1,tool,0,0,animals,1,t_193.png,193,tbd,82.1288305181661,86.6992013865674,4.5112254368631,animal,0.423007215402322,0,1,0
12,1,animal,0,0,animals,1,a_008.png,8,tbd,89.2512247025734,94.7556653219799,5.44187366752002,animal,0.783815085189417,0,1,1
13,1,animal,0,0,animals,1,a_156.png,156,tbd,97.3243696021673,104.413313640776,7.0326030943459,animal,0.467354665976018,0,1,1
14,1,animal,0,0,animals,1,a_157.png,157,tbd,106.965471452422,113.83765381432,6.82378667656165,animal,0.49348520860076,0,1,1
15,1,tool,0,0,animals,1,t_201.png,201,tbd,116.389703125402,123.762317447079,7.29119030504691,tool,0.407952978770481,0,2,1
16,1,animal,0,0,animals,1,a_055.png,55,tbd,126.297682746605,130.650986393186,4.27441631574773,animal,0.6205916494946,0,1,1
17,1,animal,0,0,animals,1,a_043.png,43,tbd,133.219894901064,140.776016679389,7.50051982179922,animal,0.417863407899858,0,1,1
18,1,tool,0,0,animals,1,t_216.png,216,tbd,143.344696463348,148.69904058383,5.30172885291201,tool,0.468065108521841,0,2,1
19,1,tool,0,0,animals,1,t_208.png,208,tbd,151.267727637343,156.922314510914,5.5921847389084,tool,0.558058295748197,0,2,1
20,1,tool,0,0,animals,1,t_319.png,319,tbd,159.474320540437,165.078861231159,5.53783961241993,tool,0.685770417854656,0,2,1
21,1,animal,0,0,animals,1,a_060.png,60,tbd,167.647560053447,174.319612111431,6.60533618825631,animal,0.52027923805872,0,1,1
22,1,tool,0,0,animals,1,t_344.png,344,tbd,176.871628297697,184.327662182914,7.39296989889936,tool,0.55854485364398,0,2,1
23,1,tool,0,0,animals,1,t_239.png,239,tbd,186.879680293991,192.884535979509,5.93333038492351,tool,0.58791339120944,0,2,1
24,1,tool,0,0,animals,1,t_256.png,256,tbd,195.45322670968,202.342144915921,6.81974808828112,animal,0.69860839060857,0,1,0
25,1,animal,0,0,animals,1,a_122.png,122,tbd,204.894142746547,212.833903980267,7.86305269943207,animal,0.478185953135835,0,1,1
26,1,tool,0,0,animals,1,t_293.png,293,tbd,215.402588786033,220.706905535626,5.24215193758319,tool,0.573442906345008,0,2,1
27,1,animal,0,0,animals,1,a_032.png,32,tbd,223.275600315072,230.147813986434,6.8144978916092,animal,0.458819280669559,0,1,1
28,1,animal,0,0,animals,1,a_056.png,56,tbd,232.699832597165,237.587120742333,4.83564062733248,animal,0.591682683181716,0,1,1
29,1,tool,0,0,animals,1,t_210.png,210,tbd,240.139134164696,245.176561487751,4.9649348715919,tool,0.373461337410845,0,2,1
30,1,tool,0,0,animals,1,t_182.png,182,tbd,247.728555984941,255.084516306291,7.29533068544355,tool,0.527729766443372,0,2,1
31,1,tool,0,0,animals,1,t_188.png,188,tbd,257.636538916617,265.576269789482,7.88450383601147,tool,0.475322684593266,0,2,1
32,1,animal,0,0,animals,1,a_096.png,96,tbd,268.128284244158,275.834495848074,7.65358630648449,animal,0.474453002563678,0,1,1
33,1,tool,0,0,animals,1,t_199.png,199,tbd,278.386526476854,284.841756743757,6.39173785269883,tool,0.498413728812011,0,2,1
34,1,animal,0,0,animals,1,a_039.png,39,tbd,287.393778085272,295.383514164248,7.92181530578732,animal,0.510030841483967,0,1,1
35,1,animal,0,0,animals,1,a_018.png,18,tbd,297.952259764366,303.123114047718,5.1117576714313,animal,0.543660311523126,0,1,1
36,1,animal,0,0,animals,1,a_082.png,82,tbd,305.675140803913,312.313837460533,6.57473561852147,animal,0.548254324763548,0,1,1
37,1,tool,0,0,animals,1,t_181.png,181,tbd,314.865844039334,319.302772915165,4.36252791424936,tool,0.506495666370029,0,2,1
38,1,animal,0,0,animals,1,a_099.png,99,tbd,321.854789784149,328.626839200209,6.72654223118034,animal,0.56169939530082,0,1,1
39,1,tool,0,0,animals,1,t_328.png,328,tbd,331.178957813623,337.150445306819,5.92338742894604,tool,0.843330985080684,0,2,1
40,1,animal,0,0,animals,1,a_065.png,65,tbd,339.702468353236,345.106848672731,5.34850155311147,animal,0.478248609782895,0,1,1
41,1,animal,0,0,animals,1,a_104.png,104,tbd,347.658858218754,354.731234729057,7.01407692345372,animal,0.654071126016788,0,1,1
42,1,tool,0,0,animals,1,t_190.png,190,tbd,357.283254505513,363.404888339399,6.05497683975175,tool,0.563770892593311,0,2,1
43,1,animal,0,0,animals,1,a_158.png,158,tbd,365.956892390706,370.96095111841,4.93656716662521,animal,0.488803382701008,0,1,1
44,1,tool,0,0,animals,1,t_226.png,226,tbd,373.512975906546,381.502755070163,7.925033935274,tool,0.723370759660611,0,2,1
45,1,tool,0,0,animals,1,t_327.png,327,tbd,384.054759314691,388.942068423028,4.82741217081098,tool,0.537295435176929,0,2,1
46,1,animal,0,0,animals,1,a_003.png,3,tbd,391.494063429971,399.183629272011,7.61933530574875,animal,0.392947059328435,0,1,1
47,1,tool,0,0,animals,1,t_357.png,357,tbd,401.735656464298,407.640329585847,5.85015599749886,tool,0.496542013512226,0,2,1
48,1,animal,0,0,animals,1,a_161.png,161,tbd,410.192443576729,418.232273159229,7.94748449756742,tool,0.598936592723476,0,2,0
49,1,animal,0,0,animals,1,a_022.png,22,tbd,420.800958008243,428.607178981911,7.74239567275334,animal,0.74645722634159,0,1,1
50,1,animal,0,0,animals,1,a_117.png,117,tbd,431.159287218645,438.54859859214,7.31208357698567,animal,0.495256974274525,0,1,1
51,1,tool,0,0,animals,1,t_309.png,309,tbd,441.100619713747,446.788509243168,5.62521806900939,tool,0.415604910347611,0,2,1
52,1,tool,0,0,animals,1,t_310.png,310,tbd,449.357255789189,455.412150071468,5.99854896149508,tool,0.618183979269816,0,2,1
53,1,tool,0,0,animals,1,t_295.png,295,tbd,457.980845893355,462.467811710696,4.4176348406943,tool,0.52077436473337,0,2,1
54,1,animal,0,0,animals,1,a_011.png,11,tbd,465.019812492072,469.27328464546,4.18411971748077,animal,0.608528266660869,0,1,1
55,1,animal,0,0,animals,1,a_024.png,24,tbd,471.825288959924,479.231287528441,7.33869417569355,animal,0.608832295896718,0,1,1
56,1,tool,0,0,animals,1,t_215.png,215,tbd,481.783290504187,486.503796873818,4.64823747287404,tool,0.648540954774944,0,2,1
57,1,tool,0,0,animals,1,t_214.png,214,tbd,489.055800322501,493.993144247914,4.85787466891709,tool,0.638321378006367,0,2,1
58,1,tool,0,0,animals,1,t_223.png,223,tbd,496.545157626999,500.865344915801,4.25819223457611,tool,0.788314006058499,0,2,1
59,1,animal,0,0,animals,1,a_013.png,13,tbd,503.417345423863,511.206830213749,7.73471039315485,animal,0.513222960202256,0,1,1
60,1,tool,0,0,animals,1,t_231.png,231,tbd,513.759009990463,517.979079668352,4.16777554765671,tool,0.603213442547712,0,2,1
