trial,phase,object,toShock,seenBefore,shockedCategory,responseSide,filename,num,name,onsetFixationCross,onsetStimulus,interTrialTime,response,reactionTime,wasShocked,buttonPressed,isResponseCorrect
1,1,tool,0,0,tools,1,t_301.png,301,tbd,0.0162266258266754,7.58871188963531,7.49257115568651,tool,0.74301750867744,0,2,1
2,1,tool,0,0,tools,1,t_266.png,266,tbd,10.1577036101371,14.2943461649411,4.06944517740097,tool,0.773565302835777,0,2,1
3,1,tool,0,0,tools,1,t_192.png,192,tbd,16.8463877813483,23.3683007979416,6.46520597341123,tool,0.703865121206036,0,2,1
4,1,animal,0,0,tools,1,a_083.png,83,tbd,25.9203098922153,31.157745120785,5.18955030821142,animal,0.498592133051716,0,1,1
5,1,animal,0,0,tools,1,a_105.png,105,tbd,33.7099612047896,40.3486207373498,6.56412553151178,animal,0.494101558171678,0,1,1
6,1,animal,0,0,tools,1,a_065.png,65,tbd,42.9006303966453,50.5734229288937,7.6140447883875,animal,0.541568634944269,0,1,1
7,1,tool,0,0,tools,1,t_337.png,337,tbd,53.1422268675815,58.9635679536441,5.74866585474899,tool,0.603712754003936,0,2,1
8,1,tool,0,0,tools,1,t_342.png,342,tbd,61.5322789276252,69.0215558035125,7.43131569500707,tool,0.593044184788596,0,2,1
9,1,tool,0,0,tools,1,t_352.png,352,tbd,71.5903486807074,78.829290579044,7.18619626252042,tool,0.587631374044577,0,2,1
10,1,animal,0,0,tools,1,a_012.png,12,tbd,81.3815863761993,88.3204985425691,6.88080233293481,animal,0.513672457454959,0,1,1
11,1,tool,0,0,tools,1,t_273.png,273,tbd,90.8892041205254,96.6938977830578,5.74775511704332,tool,0.738526990928221,0,2,1
12,1,animal,0,0,tools,1,a_118.png,118,tbd,99.2459017721994,105.601048209734,6.29765829000749,animal,0.558650792518165,0,1,1
13,1,tool,0,0,tools,1,t_336.png,336,tbd,108.15305588764,114.05784271055,5.83925075602119,tool,0.543113046092913,0,2,1
14,1,animal,0,0,tools,1,a_164.png,164,tbd,116.609869457985,122.180902244465,5.52431928766235,animal,0.473180159082403,0,1,1
15,1,animal,0,0,tools,1,a_125.png,125,tbd,124.749729460571,131.755403488991,6.93955057659808,animal,0.457952739408938,0,1,1
16,1,animal,0,0,tools,1,a_173.png,173,tbd,134.307412636612,142.34723795866,7.96684815251031,animal,0.68356285901973,0,1,1
17,1,tool,0,0,tools,1,t_256.png,256,tbd,144.915939430619,151.137639266788,6.16029440572935,tool,0.638439774804283,0,2,1
18,1,animal,0,0,tools,1,a_063.png,63,tbd,153.689645409526,159.527671131887,5.78213275459087,animal,0.534615035518073,0,1,1
19,1,tool,0,0,tools,1,t_309.png,309,tbd,162.096406426397,167.517456555215,5.36329591404445,tool,0.59301102833706,0,2,1
20,1,animal,0,0,tools,1,a_152.png,152,tbd,170.069491793314,174.339318457642,4.21518668288835,animal,0.578377944824751,0,1,1
21,1,animal,0,0,tools,1,a_008.png,8,tbd,176.908308662591,180.994699393166,4.03115797220348,animal,0.599305730545893,0,1,1
22,1,animal,0,0,tools,1,a_122.png,122,tbd,183.563656352751,190.786123444675,7.15588259820341,animal,0.585125853045611,0,1,1
23,1,tool,0,0,tools,1,t_353.png,353,tbd,193.371532469318,198.875998802716,5.43727693479354,tool,0.648407173866872,0,2,1
24,1,tool,0,0,tools,1,t_250.png,250,tbd,201.444707152579,207.899921974371,6.38191126423858,tool,0.55884568055626,0,2,1
25,1,animal,0,0,tools,1,a_024.png,24,tbd,210.451936554513,218.108070662536,7.5925931027534,animal,0.529990389331942,0,1,1
26,1,animal,0,0,tools,1,a_153.png,153,tbd,220.660113448364,225.380621678458,4.65027758017818,animal,0.574631167779444,0,1,1
27,1,animal,0,0,tools,1,a_005.png,5,tbd,227.932642256172,233.120176310389,5.11849834187128,animal,0.524358790164115,0,1,1
28,1,tool,0,0,tools,1,t_221.png,221,tbd,235.672186665732,243.26166495771,7.53214344676148,tool,0.628175364254275,0,2,1
29,1,tool,0,0,tools,1,t_237.png,237,tbd,245.813675259735,250.067104097281,4.19938371917308,tool,0.624851580389077,0,2,1
30,1,animal,0,0,tools,1,a_172.png,172,tbd,252.619139330724,258.707393101533,6.02100175901993,animal,0.648951336770551,0,1,1
31,1,tool,0,0,tools,1,t_190.png,190,tbd,261.259414125496,267.714627846173,6.36539048559546,tool,0.498925174033502,0,2,1
32,1,tool,0,0,tools,1,t_356.png,356,tbd,270.283341509756,276.221475317667,5.78459442354007,tool,0.563416516000871,0,2,1
33,1,tool,0,0,tools,1,t_329.png,329,tbd,278.773482496006,285.245242143603,6.41016211561245,tool,0.558867458283203,0,2,1
34,1,animal,0,0,tools,1,a_006.png,6,tbd,287.797431688028,294.686250326427,6.83398754692926,animal,0.490179102722323,0,1,1
35,1,animal,0,0,tools,1,a_001.png,1,tbd,297.255029355205,303.543430092599,6.21094720412175,animal,0.634092178108403,0,1,1
36,1,tool,0,0,tools,1,t_228.png,228,tbd,306.112127982517,311.666610081244,5.48350884973089,tool,0.608270583034027,0,2,1
37,1,tool,0,0,tools,1,t_194.png,194,tbd,314.218634675082,319.556289257278,5.26827452568865,tool,0.503823721752269,0,2,1
38,1,tool,0,0,tools,1,t_341.png,341,tbd,322.108293656202,326.261517885723,4.1152189878576,tool,0.563709127658512,0,2,1
39,1,animal,0,0,tools,1,a_086.png,86,tbd,328.830372677039,334.935260534723,6.0474480422548,animal,0.515315047814511,0,1,1
40,1,animal,0,0,tools,1,a_145.png,145,tbd,337.50399871057,344.926619331702,7.36862804277514,animal,0.49015937835793,0,1,1
41,1,animal,0,0,tools,1,a_092.png,92,tbd,347.478693402925,355.451506783516,7.91155882281783,animal,0.604603869694984,0,1,1
42,1,tool,0,0,tools,1,t_210.png,210,tbd,358.020491711184,365.843484411598,7.75286061061821,tool,0.543023167556385,0,2,1
43,1,tool,0,0,tools,1,t_200.png,200,tbd,368.395509451686,374.233556608553,5.78563913345065,tool,0.518119803251466,0,2,1
44,1,tool,0,0,tools,1,t_245.png,245,tbd,376.802261728066,382.890514856233,6.02511297519919,tool,0.548394676210592,0,2,1
45,1,animal,0,0,tools,1,a_160.png,160,tbd,385.459211657144,392.598319375014,7.08898265523276,animal,0.619038732955232,0,1,1
46,1,animal,0,0,tools,1,a_022.png,22,tbd,395.16701549213,399.270063630916,4.04478238597366,animal,0.553414121997776,0,1,1
47,1,animal,0,0,tools,1,a_026.png,26,tbd,401.83904067878,409.194986712741,7.29628403894869,animal,0.740835955075454,0,1,1
48,1,tool,0,0,tools,1,t_308.png,308,tbd,411.74702545529,419.753466545837,7.93639734824231,tool,0.533559430215973,0,2,1
49,1,tool,0,0,tools,1,t_267.png,267,tbd,422.322170683095,429.861584991508,7.48081224396985,tool,0.64672957372386,0,2,1
50,1,animal,0,0,tools,1,a_073.png,73,tbd,432.430283143331,437.234185057459,4.73448472438127,animal,0.643395715305815,0,1,1
51,1,animal,0,0,tools,1,a_169.png,169,tbd,439.786213471001,445.073804634711,5.22911670305025,animal,0.584092227625661,0,1,1
52,1,tool,0,0,tools,1,t_349.png,349,tbd,447.642512235238,454.564779037144,6.79301348068378,tool,0.583393588080071,0,2,1
53,1,animal,0,0,tools,1,a_080.png,80,tbd,457.133478581061,461.586810863664,4.40359591070929,animal,0.612583410256775,0,1,1
54,1,animal,0,0,tools,1,a_135.png,135,tbd,464.139125565649,469.209713799442,5.02231444787878,animal,0.593995525239734,0,1,1
55,1,animal,0,0,tools,1,a_175.png,175,tbd,471.778574801632,478.817590317049,6.96806479708965,animal,0.548331322323065,0,1,1
56,1,tool,0,0,tools,1,t_251.png,251,tbd,481.369624473708,487.958247194707,6.52264491815868,tool,0.644963858474512,0,2,1
57,1,tool,0,0,tools,1,t_198.png,198,tbd,490.510285981203,496.698620720825,6.1292440347359,tool,0.55085952123045,0,2,1
58,1,tool,0,0,tools,1,t_313.png,313,tbd,499.250637229037,503.654210793466,4.32808832113279,tool,0.788525246258359,0,2,1
59,1,animal,0,0,tools,1,a_025.png,25,tbd,506.206239391293,511.877483627235,5.59914119749569,animal,0.623452807223657,0,1,1
60,1,tool,0,0,tools,1,t_294.png,294,tbd,514.429516883945,522.185759433953,7.69341015928724,tool,0.60847978721722,0,2,1
