trial,phase,object,toShock,seenBefore,shockedCategory,responseSide,filename,num,name,onsetFixationCross,onsetStimulus,interTrialTime,response,reactionTime,wasShocked,buttonPressed,isResponseCorrect
1,2,tool,1,0,tools,1,t_203.png,203,tbd,0.0137895895750262,7.21958346047904,7.12079494463002,1,1.37308249727357,1,1,1
2,2,tool,0,0,tools,1,t_343.png,343,tbd,11.9733526584751,21.931213368458,9.90871457526368,1,1.12488345132442,0,1,0
3,2,tool,1,0,tools,1,t_235.png,235,tbd,26.4850239568623,36.2426985786296,9.70615525533407,1,1.12487414843054,1,1,1
4,2,animal,0,0,tools,1,a_059.png,59,tbd,40.9966714638285,50.6544354609505,9.60329575688544,0,1.6895329595427,0,2,1
5,2,animal,0,0,tools,1,a_167.png,167,tbd,55.208084036014,61.780085478269,6.51258091842179,1,1.13821557929623,0,1,0
6,2,tool,1,0,tools,1,t_351.png,351,tbd,66.3336979893502,72.6553591800039,6.2583050639751,0,1.31719840390724,1,2,0
7,2,animal,0,0,tools,1,a_108.png,108,tbd,77.4259571048606,86.5166188572475,9.03687087836897,0,0.888412140804576,0,2,1
8,2,animal,0,0,tools,1,a_074.png,74,tbd,91.0702350767097,98.7931417328073,7.67398595888493,0,0.883208042534534,0,2,1
9,2,tool,1,0,tools,1,t_188.png,188,tbd,103.346777632978,112.170454496983,8.77728231679305,1,0.694332577404566,1,1,1
10,2,animal,0,0,tools,1,a_047.png,47,tbd,116.924332100258,125.531300689036,8.54193847533147,0,0.782843286724528,0,2,1
11,2,animal,0,0,tools,1,a_128.png,128,tbd,130.084909278463,137.407503288327,7.24281072963732,0,0.779029012541287,0,2,1
12,2,animal,0,0,tools,1,a_028.png,28,tbd,141.961124040507,149.433832452312,7.42476736258208,0,0.840065145457629,0,2,1
13,2,tool,0,0,tools,1,t_330.png,330,tbd,153.987469080079,160.826278579159,6.77392631982354,1,1.48792831640458,0,1,0
14,2,animal,0,0,tools,1,a_149.png,149,tbd,165.396619767271,172.802448323841,7.35053010150642,0,0.744161658454686,0,2,1
15,2,animal,0,0,tools,1,a_130.png,130,tbd,177.372903359937,185.696298814466,8.18220093713739,0,0.698700264067156,0,2,1
16,2,animal,0,0,tools,1,a_052.png,52,tbd,190.266599054099,196.704860525817,6.39008556951926,0,0.888409194536507,0,2,1
17,2,tool,1,0,tools,1,t_350.png,350,tbd,201.258772471978,208.648072752345,7.33305418733767,0,1.12364117038669,1,2,0
18,2,tool,1,0,tools,1,t_205.png,205,tbd,213.401858223806,219.506798571936,6.03546704452642,1,1.16828522077412,1,1,1
19,2,animal,0,0,tools,1,a_071.png,71,tbd,224.277261251234,231.983411174442,7.64486168938619,0,0.720891069213394,0,2,1
20,2,animal,0,0,tools,1,a_123.png,123,tbd,236.537107932352,243.125728463609,6.53588566977131,0,0.675024075404508,0,2,1
21,2,tool,1,0,tools,1,t_243.png,243,tbd,247.696104682545,255.302195959463,7.55549901643763,1,2.47500403679442,1,1,1
22,2,tool,0,0,tools,1,t_360.png,360,tbd,260.056003712059,267.862281567242,7.74166063355469,1,0.82303807666176,0,1,0
23,2,animal,0,0,tools,1,a_176.png,176,tbd,272.415945901419,280.589219249203,8.10287316003008,0,0.688561528309947,0,2,1
24,2,animal,0,0,tools,1,a_096.png,96,tbd,285.142845169437,293.132614730188,7.92860891385644,0,0.603554398316192,0,2,1
25,2,animal,0,0,tools,1,a_070.png,70,tbd,297.686242343072,306.626805190986,8.87062318240538,0,1.62777780450415,0,2,1
26,2,tool,1,0,tools,1,t_359.png,359,tbd,311.180408777233,320.821493196825,9.59032506620719,0,1.15461288689403,1,2,0
27,2,tool,1,0,tools,1,t_214.png,214,tbd,325.558637829992,332.781026187469,7.15646832704882,1,1.41847473781672,1,1,1
28,2,animal,0,0,tools,1,a_038.png,38,tbd,337.551617062592,346.225107491162,8.60443368557961,0,0.819649479904911,0,2,1
29,2,animal,0,0,tools,1,a_087.png,87,tbd,350.795566917135,360.453376960446,9.60260631396713,0,0.657914382027229,0,2,1
30,2,tool,1,0,tools,1,t_242.png,242,tbd,365.007011664798,372.045818215993,6.97894177351316,0,0.790776313020615,1,2,0
31,2,animal,0,0,tools,1,a_170.png,170,tbd,376.816520338733,384.105453217257,7.23949249266609,0,0.777477079624077,0,2,1
32,2,tool,1,0,tools,1,t_227.png,227,tbd,388.676003649569,396.015136126545,7.27960234085468,0,0.814252966549248,1,2,0
33,2,animal,0,0,tools,1,a_177.png,177,tbd,400.785749968753,407.541149102995,6.69684303333067,0,0.668543495732592,0,2,1
34,2,tool,1,0,tools,1,t_191.png,191,tbd,412.111494702898,421.419011721213,9.18789943332316,1,1.10011389845749,1,1,1
35,2,animal,0,0,tools,1,a_064.png,64,tbd,426.172804473172,435.813931577839,9.58491432445365,0,0.653498932573712,0,2,1
36,2,tool,0,0,tools,1,t_209.png,209,tbd,440.367555972509,450.225287009438,9.8074576220837,0,1.81660733255558,0,2,1
37,2,tool,1,0,tools,1,t_184.png,184,tbd,454.779125910864,462.768704261631,7.93964737678794,1,2.52062074249261,1,1,1
38,2,tool,1,0,tools,1,t_216.png,216,tbd,467.539368909056,476.730127229297,9.13229014965802,1,0.91371709186933,1,1,1
39,2,animal,0,0,tools,1,a_042.png,42,tbd,481.500605592912,490.941544545291,9.37052122849515,0,0.758686651621247,0,2,1
40,2,animal,0,0,tools,1,a_114.png,114,tbd,495.495157854311,503.635081767541,8.0817979378265,0,1.09342497537727,0,2,1
41,2,tool,1,0,tools,1,t_354.png,354,tbd,508.188703906839,516.14494148182,7.90804686387861,1,1.73496375468676,1,1,1
42,2,animal,0,0,tools,1,a_029.png,29,tbd,520.915586571675,529.372418683954,8.39891116264002,0,0.938897915679263,0,2,1
43,2,tool,0,0,tools,1,t_272.png,272,tbd,533.926037840225,540.397834639094,6.35084382734635,1,2.29293984151445,0,1,0
44,2,tool,0,0,tools,1,t_255.png,255,tbd,544.951566309115,552.357550275483,7.36499181877721,1,0.858423150057206,0,1,0
45,2,animal,0,0,tools,1,a_124.png,124,tbd,556.911176452937,563.483168172417,6.51503539509213,0,0.703211960644694,0,2,1
46,2,animal,0,0,tools,1,a_013.png,13,tbd,568.036784675467,574.425175925804,6.32968977750237,0,0.614454641094198,0,2,1
47,2,animal,0,0,tools,1,a_179.png,179,tbd,578.978910717298,588.286284866685,9.26835446259211,0,0.818577943544369,0,2,1
48,2,tool,0,0,tools,1,t_338.png,338,tbd,592.823414305836,601.680516352906,8.77634996734632,1,0.855096046667313,0,1,0
49,2,animal,0,0,tools,1,a_165.png,165,tbd,606.234189282113,614.607349399506,8.31802953041692,0,0.822528237040387,0,2,1
50,2,tool,0,0,tools,1,t_312.png,312,tbd,619.177906639699,627.985028464202,8.72807347619722,1,1.06824811932165,0,1,0
51,2,animal,0,0,tools,1,a_132.png,132,tbd,632.555327692622,639.977922539983,7.36389750363994,0,0.685785258567194,0,2,1
52,2,tool,1,0,tools,1,t_298.png,298,tbd,644.548310007231,651.80417559942,7.20446256300199,0,0.889885438169586,1,2,0
53,2,tool,0,0,tools,1,t_261.png,261,tbd,656.557963326253,664.147350106505,7.52045637914274,0,1.67518474149983,0,2,1
54,2,tool,0,0,tools,1,t_182.png,182,tbd,668.701071590011,677.891591262567,9.14270617629268,0,1.64022452782956,0,2,1
55,2,animal,0,0,tools,1,a_131.png,131,tbd,682.445439583447,690.918919621035,8.41394198113208,0,0.708274596428964,0,2,1
56,2,tool,1,0,tools,1,t_311.png,311,tbd,695.489243153017,705.046936760918,9.4932634497629,1,2.2838430388656,1,1,1
57,2,animal,0,0,tools,1,a_154.png,154,tbd,709.817409844429,717.373453976063,7.50507778403093,0,0.740566569729708,0,2,1
58,2,tool,1,0,tools,1,t_297.png,297,tbd,721.92716566645,731.584679418127,9.61547406048401,0,1.42468046411523,1,2,0
59,2,tool,1,0,tools,1,t_322.png,322,tbd,736.338720626169,744.678782794275,8.28422695280216,1,1.25304468758986,1,1,1
60,2,tool,1,0,tools,1,t_231.png,231,tbd,749.432548424549,759.006679709011,9.53226092457069,0,1.56569081114139,1,2,0
