trial,phase,object,toShock,seenBefore,shockedCategory,responseSide,filename,num,name,onsetFixationCross,onsetStimulus,interTrialTime,response,reactionTime,wasShocked,buttonPressed,isResponseCorrect
1,2,tool,0,0,tools,1,t_235.png,235,tbd,0.0127685460859084,8.11906025166422,8.01933551473816,0,1.61314616196978,0,2,1
2,2,animal,0,0,tools,1,a_124.png,124,tbd,12.6893293598264,22.5470565689234,9.75633614421151,0,1.58328708491308,0,2,1
3,2,tool,1,0,tools,1,t_263.png,263,tbd,27.1172356314987,34.1726113042412,6.98289205741222,0,1.02282273878291,1,2,0
4,2,animal,0,0,tools,1,a_112.png,112,tbd,38.9432072868844,47.7664542461259,8.75047236045086,0,1.52101067987041,0,2,1
5,2,animal,0,0,tools,1,a_008.png,8,tbd,52.336956576182,59.3424573034845,6.84415959268152,0,1.49026335037343,0,2,1
6,2,animal,0,0,tools,1,a_171.png,171,tbd,63.9126839399144,70.6346612961495,6.63422029222649,0,1.07909512069728,0,2,1
7,2,tool,1,0,tools,1,t_212.png,212,tbd,75.1881596093249,81.910151701223,6.64413052107937,1,1.68873378438684,1,1,1
8,2,tool,0,0,tools,1,t_313.png,313,tbd,86.6638031055516,93.3355275868489,6.60214925599702,1,1.09643286252663,0,1,0
9,2,tool,0,0,tools,1,t_282.png,282,tbd,97.9059879420395,105.578650119293,7.57859184168544,1,1.72641963602746,0,1,0
10,2,animal,0,0,tools,1,a_047.png,47,tbd,110.132170378383,118.138479346916,7.9404246494215,0,1.03363182250337,0,2,1
11,2,tool,0,0,tools,1,t_267.png,267,tbd,122.708682951892,131.665723137954,8.89760174170884,1,1.72853498886207,0,1,0
12,2,tool,0,0,tools,1,t_293.png,293,tbd,136.219246439766,143.474976074294,7.1854973092818,1,1.78642342306807,0,1,0
13,2,tool,1,0,tools,1,t_206.png,206,tbd,148.045163787564,154.283395020324,6.17574990538583,0,1.61501486893803,1,2,0
14,2,animal,0,0,tools,1,a_067.png,67,tbd,159.037092537716,168.494253244895,9.40136562437549,0,0.922336669499146,0,2,1
15,2,tool,1,0,tools,1,t_186.png,186,tbd,173.064729673975,182.872388226142,9.73445180329859,0,1.19130366524814,1,2,0
16,2,tool,0,0,tools,1,t_357.png,357,tbd,187.64279565951,193.997525855104,6.28498070564084,0,2.33928230348465,0,2,1
17,2,animal,0,0,tools,1,a_081.png,81,tbd,198.551304233393,205.689931755152,7.08338199388972,0,1.02191879567999,0,2,1
18,2,tool,1,0,tools,1,t_196.png,196,tbd,210.243794013144,220.30155788936,9.99481975286458,0,1.32350592212197,1,2,0
19,2,animal,0,0,tools,1,a_014.png,14,tbd,225.072064495529,233.561893961084,8.42268551119088,0,0.979241686955447,0,2,1
20,2,tool,1,0,tools,1,t_331.png,331,tbd,238.132283914449,244.637412562919,6.43735321526106,0,1.33886875379267,1,2,0
21,2,animal,0,0,tools,1,a_051.png,51,tbd,249.391071258892,257.931148772202,8.47248019100608,0,1.31525413438885,0,2,1
22,2,animal,0,0,tools,1,a_005.png,5,tbd,262.484655726136,272.325741807914,9.76590634544219,0,0.869746675674833,0,2,1
23,2,tool,0,0,tools,1,t_353.png,353,tbd,276.895925708084,283.350978814469,6.32086271342981,1,0.749569339549907,0,1,0
24,2,animal,0,0,tools,1,a_046.png,46,tbd,287.921249362599,294.643193546562,6.64817501040622,0,0.678511371295372,0,2,1
25,2,animal,0,0,tools,1,a_166.png,166,tbd,299.213370215656,308.336922121552,9.06512619311566,0,1.02896086871624,0,2,1
26,2,tool,1,0,tools,1,t_185.png,185,tbd,312.907407535883,322.614860463,9.64224090237177,1,1.18702987406732,1,1,1
27,2,tool,1,0,tools,1,t_214.png,214,tbd,327.368778363237,334.924428777104,7.49134714960245,1,1.61865557542751,1,1,1
28,2,animal,0,0,tools,1,a_172.png,172,tbd,339.695071947461,349.619353958454,9.8571688828922,0,0.707817773862644,0,2,1
29,2,tool,1,0,tools,1,t_216.png,216,tbd,354.173022383819,361.412041737052,7.16789171738698,1,1.12724694787767,1,1,1
30,2,tool,1,0,tools,1,t_245.png,245,tbd,366.165734792103,374.955828770203,8.65742364177826,1,1.76558725567202,1,1,1
31,2,animal,0,0,tools,1,a_078.png,78,tbd,379.709697768294,387.182229784582,7.38583270876594,0,0.940277997741759,0,2,1
32,2,animal,0,0,tools,1,a_001.png,1,tbd,391.735726789339,401.67688761141,9.86961937408567,0,1.18070524099039,0,2,1
33,2,animal,0,0,tools,1,a_131.png,131,tbd,406.230401167527,412.468494751037,6.16649380202196,0,0.905135310150854,0,2,1
34,2,tool,1,0,tools,1,t_352.png,352,tbd,417.022166158079,424.361127013587,7.2504758044646,1,1.2667065732071,1,1,1
35,2,animal,0,0,tools,1,a_086.png,86,tbd,429.13169336307,435.770225514181,6.48314329353512,0,0.523758000144881,0,2,1
36,2,animal,0,0,tools,1,a_035.png,35,tbd,440.323727589824,446.845366500727,6.46170508651236,0,1.15167987549466,0,2,1
37,2,animal,0,0,tools,1,a_138.png,138,tbd,451.399108755828,460.656060513098,9.1280065505934,0,0.756137118647985,0,2,1
38,2,tool,1,0,tools,1,t_215.png,215,tbd,465.209865239074,472.198565456837,6.9330166108917,1,1.10368811482158,1,1,1
39,2,animal,0,0,tools,1,a_056.png,56,tbd,476.969088390535,485.47540295764,8.45435914497772,0,0.742848821942061,0,2,1
40,2,tool,1,0,tools,1,t_191.png,191,tbd,490.029265956202,499.136454295212,9.03925861502518,1,1.33108127857349,1,1,1
41,2,tool,1,0,tools,1,t_213.png,213,tbd,503.890102261217,512.330064306267,8.36872349469836,1,1.17348771749448,1,1,1
42,2,tool,1,0,tools,1,t_201.png,201,tbd,517.083753903121,523.455459658827,6.27796951298803,1,1.22625937787825,1,1,1
43,2,animal,0,0,tools,1,a_143.png,143,tbd,528.209122725812,537.666233628443,9.32067190025292,0,1.77357652570436,0,2,1
44,2,animal,0,0,tools,1,a_164.png,164,tbd,542.236750653465,549.542311381826,7.15967479176405,0,0.968542371181229,0,2,1
45,2,animal,0,0,tools,1,a_077.png,77,tbd,554.112703749021,563.219891428854,9.04045543118144,0,0.833195708179119,0,2,1
46,2,tool,1,0,tools,1,t_182.png,182,tbd,567.790069061397,575.829759750751,7.94482764763124,1,0.81630874797429,1,1,1
47,2,tool,0,0,tools,1,t_217.png,217,tbd,580.600097958687,588.172661837044,7.50470547052366,1,0.89549551939308,0,1,0
48,2,tool,1,0,tools,1,t_306.png,306,tbd,592.742914810273,599.397855251998,6.53062633188599,1,1.26147844903289,1,1,1
49,2,animal,0,0,tools,1,a_006.png,6,tbd,604.151841859975,610.590274203502,6.32380647398335,,4.50797807586196,0,,0
50,2,tool,0,0,tools,1,t_319.png,319,tbd,615.110353708741,623.716924841141,8.55140125750549,1,1.42062951017761,0,1,0
51,2,animal,0,0,tools,1,a_068.png,68,tbd,628.287380754338,634.625350225259,6.28331423142005,0,1.13428530854435,0,2,1
52,2,animal,0,0,tools,1,a_064.png,64,tbd,639.179276293306,649.003501625839,9.75553203320041,0,0.681275453433045,0,2,1
53,2,tool,1,0,tools,1,t_210.png,210,tbd,653.557133136336,662.096902725896,8.40534543372559,1,0.94798976737502,1,1,1
54,2,animal,0,0,tools,1,a_050.png,50,tbd,666.867549395144,674.80708140346,7.82819496086544,0,0.683920285090153,0,2,1
55,2,animal,0,0,tools,1,a_129.png,129,tbd,679.377327439949,688.033954785355,8.60410586716669,0,0.798087592608226,0,2,1
56,2,animal,0,0,tools,1,a_178.png,178,tbd,692.587681868971,701.394533630763,8.74911504662513,0,0.879706700235602,0,2,1
57,2,tool,0,0,tools,1,t_204.png,204,tbd,705.948124859525,714.187626174072,8.18735204560956,1,1.03073761027918,0,1,0
58,2,tool,1,0,tools,1,t_270.png,270,tbd,718.741488766621,726.880904642144,8.09283080080859,1,1.01246057015624,1,1,1
59,2,tool,1,0,tools,1,t_241.png,241,tbd,731.651578034333,739.507713080015,7.77724489010975,1,1.09081050970644,1,1,1
60,2,animal,0,0,tools,1,a_144.png,144,tbd,744.261419206929,753.88549354793,9.56198518520926,0,2.13720906021899,0,2,1
