trial,phase,object,toShock,seenBefore,shockedCategory,responseSide,filename,num,name,onsetFixationCross,onsetStimulus,interTrialTime,response,reactionTime,wasShocked,buttonPressed,isResponseCorrect
1,3,animal,0,0,animals,2,a_043.jpg,43,tbd,0.0313628057501774,5.40209628572438,5.29196989227806,animal,1.18730169786795,0,2,1
2,3,tool,0,0,animals,2,t_282.jpg,282,tbd,7.95435456089217,12.7082731617616,4.72302784138931,tool,1.40142970132683,0,1,1
3,3,animal,0,0,animals,2,a_093.jpg,93,tbd,15.2771895399255,20.1141641972345,4.80728866746795,animal,1.2738752739092,0,2,1
4,3,tool,0,0,animals,2,t_236.jpg,236,tbd,22.6665892554961,29.7387126801177,7.04649254994957,tool,1.5427010760236,0,1,1
5,3,tool,0,0,animals,2,t_359.jpg,359,tbd,32.2911249089107,37.9622899080673,5.63461252422004,tool,1.13952860498421,0,1,1
6,3,animal,0,0,animals,2,a_004.jpg,4,tbd,40.4978089338488,45.8020469564167,5.26830371556262,animal,0.953101990508458,0,2,1
7,3,tool,0,0,animals,2,t_226.jpg,226,tbd,48.3376099231291,55.5932075807245,7.21048970381894,tool,1.60834882628023,0,1,1
8,3,animal,0,0,animals,2,a_106.jpg,106,tbd,58.1455976786838,63.1327300422377,4.93565167789922,animal,1.21518045425637,0,2,1
9,3,animal,0,0,animals,2,a_005.jpg,5,tbd,65.6851461198712,71.8398518727977,6.10653234108191,animal,1.10643338659156,0,2,1
10,3,tool,0,0,animals,2,t_342.jpg,342,tbd,74.3756104889085,81.5311341204692,7.11204403094447,tool,1.24459521879362,0,1,1
11,3,tool,0,0,animals,2,t_253.jpg,253,tbd,84.0835527639965,90.8721632106481,6.74445011318919,tool,1.52501340815797,0,1,1
12,3,tool,0,0,animals,2,t_243.jpg,243,tbd,93.4245308570371,99.0454777872983,5.57141197861838,tool,1.23901311692907,0,1,1
13,3,animal,0,0,animals,2,a_008.jpg,8,tbd,101.597909581031,107.686057653628,6.04714449076786,animal,0.904817964030826,0,2,1
14,3,tool,0,0,animals,2,t_184.jpg,184,tbd,110.221623186234,115.926115296431,5.67515573196621,tool,0.980106418599007,0,1,1
15,3,animal,0,0,animals,2,a_025.jpg,25,tbd,118.478395702432,123.065340370858,4.5481313054364,animal,1.29322082987755,0,2,1
16,3,tool,0,0,animals,2,t_276.jpg,276,tbd,125.617548290361,132.306057769093,6.65856756858527,tool,0.888883122336665,0,1,1
17,3,tool,0,0,animals,2,t_296.jpg,296,tbd,134.841806442366,142.214333802812,7.32632267838959,tool,0.718026351167282,0,1,1
18,3,tool,0,0,animals,2,t_303.jpg,303,tbd,144.766591436506,152.539448578447,7.73491045891207,tool,0.982384932253808,0,1,1
19,3,animal,0,0,animals,2,a_119.jpg,119,tbd,155.091732833288,162.69782772902,7.56391035529808,animal,0.932449111671303,0,2,1
20,3,animal,0,0,animals,2,a_053.jpg,53,tbd,165.250047836519,170.954541550399,5.6714442103466,animal,1.15010008725631,0,2,1
21,3,animal,0,0,animals,2,a_081.jpg,81,tbd,173.506786354625,180.49552881651,6.94826719608552,animal,0.960477331371294,0,2,1
22,3,tool,0,0,animals,2,t_267.jpg,267,tbd,183.047959327296,188.135288879785,5.05891615208627,tool,1.25411660904638,0,1,1
23,3,tool,0,0,animals,2,t_181.jpg,181,tbd,190.687538815798,197.826562146829,7.09372425620889,tool,0.997184365961402,0,1,1
24,3,animal,0,0,animals,2,a_127.jpg,127,tbd,200.362129603855,204.615454521057,4.2149345990006,animal,0.843647377640536,0,2,1
25,3,animal,0,0,animals,2,a_089.jpg,89,tbd,207.167715682855,213.155784597629,5.95753273838099,animal,0.979609597420676,0,2,1
26,3,animal,0,0,animals,2,a_066.jpg,66,tbd,215.708036458062,221.379232568681,5.64203201024611,,2.5041661628693,0,,0
27,3,tool,0,0,animals,2,t_217.jpg,217,tbd,223.898075209473,228.735226913451,4.80404537935293,tool,1.02388698079949,0,1,1
28,3,animal,0,0,animals,2,a_118.jpg,118,tbd,231.27079116311,238.993442103414,7.6732484155779,animal,0.681168249582697,0,2,1
29,3,animal,0,0,animals,2,a_116.jpg,116,tbd,241.545866199465,245.615672301289,4.01948939073757,,2.50079586142192,0,,0
30,3,animal,0,0,animals,2,a_061.jpg,61,tbd,248.134595767734,254.956661940852,6.77772839241794,animal,0.670640066767646,0,2,1
31,3,tool,0,0,animals,2,t_348.jpg,348,tbd,257.508932083278,264.514330723739,6.97060992716379,tool,0.924335755617449,0,1,1
32,3,animal,0,0,animals,2,a_012.jpg,12,tbd,267.066725312013,272.104049123314,5.00290361579405,animal,0.995027411523097,0,2,1
33,3,animal,0,0,animals,2,a_002.jpg,2,tbd,274.656314775426,280.444045761993,5.74852813350784,animal,0.924399582224396,0,2,1
34,3,animal,0,0,animals,2,a_039.jpg,39,tbd,282.996461198154,287.583376679538,4.54399496000271,animal,1.05736996988617,0,2,1
35,3,tool,0,0,animals,2,t_280.jpg,280,tbd,290.118976530972,296.157225026236,6.02025663339082,tool,1.04791112329394,0,1,1
36,3,tool,0,0,animals,2,t_222.jpg,222,tbd,298.709353403032,305.765005072692,7.01454057688309,tool,1.09354009120807,0,1,1
37,3,tool,0,0,animals,2,t_209.jpg,209,tbd,308.317224217979,315.75639970651,7.41270530875381,tool,0.785542392814477,0,1,1
38,3,animal,0,0,animals,2,a_013.jpg,13,tbd,318.292020405831,323.529522739191,5.20182830047919,animal,1.38282985823116,0,2,1
39,3,tool,0,0,animals,2,t_332.jpg,332,tbd,326.081771071521,331.085730245585,4.95674886102865,tool,0.693926194070627,0,1,1
40,3,tool,0,0,animals,2,t_307.jpg,307,tbd,333.621288401246,341.260704955494,7.59645587733616,tool,1.2634336900087,0,1,1
41,3,animal,0,0,animals,2,a_038.jpg,38,tbd,343.81299177623,348.616734581304,4.76610285102699,animal,1.37571944589854,0,2,1
42,3,tool,0,0,animals,2,t_242.jpg,242,tbd,351.152331866845,358.057650066537,6.85257787731059,tool,0.714184887479405,0,1,1
43,3,animal,0,0,animals,2,a_179.jpg,179,tbd,360.610051711018,365.647349863382,4.9933488698531,animal,0.734802806013249,0,2,1
44,3,tool,0,0,animals,2,t_339.jpg,339,tbd,368.199603968973,375.121764053801,6.88946937772543,tool,0.767818160963088,0,1,1
45,3,tool,0,0,animals,2,t_337.jpg,337,tbd,377.674026177809,382.961365224105,5.24293683378664,tool,0.836551398460415,0,1,1
46,3,animal,0,0,animals,2,a_067.jpg,67,tbd,385.497101709382,391.468332587861,5.92810853145372,animal,1.10492881064101,0,2,1
47,3,animal,0,0,animals,2,a_030.jpg,30,tbd,394.020761494963,401.893697794726,7.82723654609423,animal,1.2290850325162,0,2,1
48,3,tool,0,0,animals,2,t_188.jpg,188,tbd,404.429251460074,410.583991211092,6.12476958208879,tool,1.40511079665521,0,1,1
49,3,animal,0,0,animals,2,a_162.jpg,162,tbd,413.136410496093,419.407886224983,6.2226181027538,animal,1.0706548848043,0,2,1
50,3,animal,0,0,animals,2,a_100.jpg,100,tbd,421.943603145321,426.964231648166,4.99470926119533,animal,1.22457002171723,0,2,1
51,3,animal,0,0,animals,2,a_003.jpg,3,tbd,429.516508526064,433.836552454165,4.2808799512709,animal,0.860609218309946,0,2,1
52,3,tool,0,0,animals,2,t_258.jpg,258,tbd,436.38877480682,441.926329869296,5.49688412928432,tool,0.69319266919365,0,1,1
53,3,animal,0,0,animals,2,a_150.jpg,150,tbd,444.478752040928,451.434464073237,6.91179699484486,animal,0.900454661699769,0,2,1
54,3,tool,0,0,animals,2,t_231.jpg,231,tbd,453.986561659309,458.706894635342,4.67978132940284,tool,0.932357701706678,0,1,1
55,3,tool,0,0,animals,2,t_249.jpg,249,tbd,461.259188833022,468.698243403809,7.40019925902121,tool,0.787440512719968,0,1,1
56,3,animal,0,0,animals,2,a_027.jpg,27,tbd,471.233989190451,477.672488886713,6.3926511004206,animal,1.00559729011184,0,2,1
57,3,tool,0,0,animals,2,t_195.jpg,195,tbd,480.224700655056,488.080801484417,7.82178699172182,tool,1.02277947690754,0,1,1
58,3,tool,0,0,animals,2,t_291.jpg,291,tbd,490.616507820443,496.1207219802,5.46024750015143,tool,1.10120666101193,0,1,1
59,3,tool,0,0,animals,2,t_245.jpg,245,tbd,498.673139982253,503.159956420139,4.45183114954732,tool,1.52626492283707,0,1,1
60,3,animal,0,0,animals,2,a_042.jpg,42,tbd,505.712206035415,512.667768604414,6.91226996670758,animal,0.879800820653145,0,2,1
