trial,phase,object,toShock,seenBefore,shockedCategory,responseSide,filename,num,name,onsetFixationCross,onsetStimulus,interTrialTime,response,reactionTime,wasShocked,buttonPressed,isResponseCorrect
1,3,tool,0,0,animals,1,t_279.jpg,279,tbd,0.0315349382462955,5.26886270954128,5.15624467001885,tool,0.780453764051344,0,2,1
2,3,animal,0,0,animals,1,a_018.jpg,18,tbd,7.85462986217044,12.3917306787071,4.49059711370761,animal,1.06395541040365,0,1,1
3,3,tool,0,0,animals,1,t_350.jpg,350,tbd,14.9271649365592,19.9311549269432,4.95839390726713,tool,0.564889722460975,0,2,1
4,3,tool,0,0,animals,1,t_338.jpg,338,tbd,22.4833760108995,28.888488009673,6.34258408417011,tool,0.575000050184826,0,2,1
5,3,tool,0,0,animals,1,t_207.jpg,207,tbd,31.4407812598538,37.2452688443764,5.74986140934335,tool,0.632604413772242,0,2,1
6,3,animal,0,0,animals,1,a_172.jpg,172,tbd,39.797694559672,47.0701820364266,7.2207046401257,animal,0.446216695757357,0,1,1
7,3,tool,0,0,animals,1,t_265.jpg,265,tbd,49.6224210817536,55.9942314148029,6.34334070698091,tool,0.39965184013181,0,2,1
8,3,tool,0,0,animals,1,t_248.jpg,248,tbd,58.5464601964895,64.6347185271979,6.03619358066603,tool,0.813589607828362,0,2,1
9,3,tool,0,0,animals,1,t_321.jpg,321,tbd,67.18696687395,74.7430881414321,7.5061563236743,tool,1.01372771794649,0,2,1
10,3,animal,0,0,animals,1,a_140.jpg,140,tbd,77.2953262245437,81.7655574964465,4.42960493856851,animal,1.318630979923,0,1,1
11,3,tool,0,0,animals,1,t_291.jpg,291,tbd,84.3177667130676,90.4894020510392,6.12293724973238,tool,2.44728539736207,0,2,1
12,3,tool,0,0,animals,1,t_194.jpg,194,tbd,93.0415933062886,99.613622896366,6.5172268904335,tool,1.39445972081194,0,2,1
13,3,tool,0,0,animals,1,t_241.jpg,241,tbd,102.165816717526,107.10308823124,4.89242503577906,tool,2.03836013527052,0,2,1
14,3,animal,0,0,animals,1,a_039.jpg,39,tbd,109.638676764444,113.791941147492,4.10983410299308,animal,1.15386907393986,0,1,1
15,3,tool,0,0,animals,1,t_314.jpg,314,tbd,116.327549887239,120.464158305605,4.09362831856547,tool,1.65798383170841,0,2,1
16,3,tool,0,0,animals,1,t_193.jpg,193,tbd,123.016397350933,130.572499053351,7.52270165958042,tool,1.15216691325077,0,2,1
17,3,tool,0,0,animals,1,t_327.jpg,327,tbd,133.124642197784,137.82843095666,4.64587333619112,tool,1.38860078557445,0,2,1
18,3,animal,0,0,animals,1,a_087.jpg,87,tbd,140.380707528424,144.550700363119,4.12448762250527,animal,0.542552511823487,0,1,1
19,3,animal,0,0,animals,1,a_025.jpg,25,tbd,147.086222824135,153.758271273652,6.62307539247476,animal,1.30454092545551,0,1,1
20,3,animal,0,0,animals,1,a_097.jpg,97,tbd,156.29384024179,164.016800519576,7.68432560275538,animal,1.20552245026101,0,1,1
21,3,tool,0,0,animals,1,t_263.jpg,263,tbd,166.552297321489,171.122615770191,4.53152177894883,tool,0.561026744631818,0,2,1
22,3,animal,0,0,animals,1,a_014.jpg,14,tbd,173.674855136258,179.029171414199,5.29769265091261,animal,0.754890883535154,0,1,1
23,3,animal,0,0,animals,1,a_124.jpg,124,tbd,181.581391535939,186.068293847247,4.45266809354608,animal,0.795106715072507,0,1,1
24,3,animal,0,0,animals,1,a_027.jpg,27,tbd,188.620528402232,196.51025680705,7.85208689328574,animal,0.680664553576207,0,1,1
25,3,tool,0,0,animals,1,t_252.jpg,252,tbd,199.06248206061,203.999754215802,4.89252862662124,tool,0.654577265158878,0,2,1
26,3,animal,0,0,animals,1,a_143.jpg,143,tbd,206.552016675059,214.575159581505,7.96948526986818,animal,1.37770849671233,0,1,1
27,3,tool,0,0,animals,1,t_312.jpg,312,tbd,217.110766396819,221.46419390761,4.3099107893774,tool,0.626977051932045,0,2,1
28,3,animal,0,0,animals,1,a_126.jpg,126,tbd,224.016447706921,230.404914004653,6.34346620694247,animal,0.853772082533396,0,1,1
29,3,animal,0,0,animals,1,a_176.jpg,176,tbd,232.940479123926,238.411331987578,5.41575781314708,animal,0.780722543146112,0,1,1
30,3,tool,0,0,animals,1,t_295.jpg,295,tbd,240.963724346041,246.784909912026,5.76607608072063,tool,0.685551650319212,0,2,1
31,3,animal,0,0,animals,1,a_138.jpg,138,tbd,249.3206164771,256.042734494858,6.67667571511736,animal,1.40212922644423,0,1,1
32,3,animal,0,0,animals,1,a_093.jpg,93,tbd,258.59490393987,262.93176689653,4.30504118691736,animal,1.20353194541167,0,1,1
33,3,tool,0,0,animals,1,t_274.jpg,274,tbd,265.467295130844,270.471272612415,4.94782117647539,tool,1.42936604263741,0,2,1
34,3,animal,0,0,animals,1,a_132.jpg,132,tbd,273.006874616648,279.428670163639,6.37305001713844,animal,0.716435266404915,0,1,1
35,3,animal,0,0,animals,1,a_003.jpg,3,tbd,281.980957961261,287.085022619633,5.07224896480723,animal,1.25149522210359,0,1,1
36,3,tool,0,0,animals,1,t_357.jpg,357,tbd,289.637278343376,294.00740126972,4.31188929244497,tool,1.18448070354316,0,2,1
37,3,tool,0,0,animals,1,t_332.jpg,332,tbd,296.576325146219,302.848136505632,6.22632482741849,tool,1.08316317279514,0,2,1
38,3,tool,0,0,animals,1,t_303.jpg,303,tbd,305.400236991809,311.05479363139,5.62075102611267,tool,0.645798003358323,0,2,1
39,3,animal,0,0,animals,1,a_023.jpg,23,tbd,313.607044223313,317.877247398499,4.22371121795099,animal,0.915804244934407,0,1,1
40,3,animal,0,0,animals,1,a_041.jpg,41,tbd,320.429357827577,327.368210583461,6.89919254947509,animal,1.10022711720194,0,1,1
41,3,animal,0,0,animals,1,a_139.jpg,139,tbd,329.92049389074,335.391556517551,5.42951713218258,animal,0.701352525422408,0,1,1
42,3,tool,0,0,animals,1,t_282.jpg,282,tbd,337.943815769422,344.115431542328,6.11626408350427,tool,0.782953602078123,0,2,1
43,3,animal,0,0,animals,1,a_030.jpg,30,tbd,346.667651022591,350.971093960917,4.26460734559942,animal,1.00960045136526,0,1,1
44,3,animal,0,0,animals,1,a_045.jpg,45,tbd,353.523379513367,361.479759360452,7.90344033990267,animal,1.65650682964042,0,1,1
45,3,animal,0,0,animals,1,a_161.jpg,161,tbd,364.03199295322,371.02096884072,6.9461183612117,animal,1.21575850758472,0,1,1
46,3,tool,0,0,animals,1,t_216.jpg,216,tbd,373.573225847419,380.829084943025,7.20103384077636,tool,0.723097331539066,0,2,1
47,3,tool,0,0,animals,1,t_255.jpg,255,tbd,383.364611252907,390.753897038213,7.35964880972162,tool,0.793758008516306,0,2,1
48,3,tool,0,0,animals,1,t_195.jpg,195,tbd,393.306184194357,400.561841224534,7.19994170649356,tool,0.829344938026225,0,2,1
49,3,animal,0,0,animals,1,a_102.jpg,102,tbd,403.114258600622,409.052342545657,5.89503374318863,animal,2.03732799788668,0,1,1
50,3,tool,0,0,animals,1,t_270.jpg,270,tbd,411.587900287938,416.675333999252,5.03651613629697,tool,1.39471246296762,0,2,1
51,3,tool,0,0,animals,1,t_245.jpg,245,tbd,419.227552196558,424.531619292545,5.24624792015815,tool,0.979785536883355,0,2,1
52,3,tool,0,0,animals,1,t_222.jpg,222,tbd,427.084003953277,434.172928779164,7.02143532257255,tool,0.776954503995512,0,2,1
53,3,animal,0,0,animals,1,a_064.jpg,64,tbd,436.708706868984,443.480810100685,6.72775775289287,animal,1.0195545793049,0,1,1
54,3,animal,0,0,animals,1,a_179.jpg,179,tbd,446.016310751464,450.553267877029,4.50175312559413,animal,1.08345729025314,0,1,1
55,3,animal,0,0,animals,1,a_100.jpg,100,tbd,453.105538354755,460.728389324766,7.57963344373369,animal,1.54087023693864,0,1,1
56,3,tool,0,0,animals,1,t_250.jpg,250,tbd,463.28058988144,471.003517123132,7.67572895897394,tool,1.13617551931293,0,2,1
57,3,animal,0,0,animals,1,a_119.jpg,119,tbd,473.555719283499,478.009293628503,4.41054979002005,animal,1.19982324293505,0,1,1
58,3,animal,0,0,animals,1,a_129.jpg,129,tbd,480.561514070982,486.732983587006,6.11990491510937,animal,0.711531491245296,0,1,1
59,3,tool,0,0,animals,1,t_253.jpg,253,tbd,489.285430150322,495.757278907876,6.43050158400488,tool,0.73468722724192,0,2,1
60,3,animal,0,0,animals,1,a_026.jpg,26,tbd,498.326204067332,505.76534933698,7.38978881772951,animal,0.625129275837935,0,1,1
