trial,phase,object,toShock,seenBefore,shockedCategory,responseSide,filename,num,name,onsetFixationCross,onsetStimulus,interTrialTime,response,reactionTime,wasShocked,buttonPressed,isResponseCorrect
1,3,tool,0,0,animals,1,t_211.jpg,211,tbd,0.0147562042461686,7.65395961710965,7.55825158767605,tool,0.972797723122312,0,2,1
2,3,animal,0,0,animals,1,a_164.jpg,164,tbd,10.2228639682157,17.3784785245239,7.11644325572851,animal,0.597568117858827,0,1,1
3,3,animal,0,0,animals,1,a_136.jpg,136,tbd,19.9308679748215,24.9681571204542,4.99043026520932,animal,0.617155327125602,0,1,1
4,3,tool,0,0,animals,1,t_188.jpg,188,tbd,27.5202768336799,31.8237092299041,4.27109781171396,tool,0.822798893800154,0,2,1
5,3,animal,0,0,animals,1,a_014.jpg,14,tbd,34.3759052777586,38.5789977282961,4.14962587488757,animal,0.614796330496119,0,1,1
6,3,animal,0,0,animals,1,a_124.jpg,124,tbd,41.1313897444634,47.4030021467238,6.23740481670486,animal,0.613126911399831,0,1,1
7,3,animal,0,0,animals,1,a_135.jpg,135,tbd,49.9551876103656,57.6946555964878,7.69971210022766,animal,0.605803918736001,0,1,1
8,3,tool,0,0,animals,1,t_231.jpg,231,tbd,60.2468577382838,67.9863109706544,7.7028154784448,tool,1.0735170968187,0,2,1
9,3,animal,0,0,animals,1,a_024.jpg,24,tbd,70.5217964701219,77.9443561113617,7.37699483916267,animal,0.670823061728697,0,1,1
10,3,tool,0,0,animals,1,t_255.jpg,255,tbd,80.4965960997383,86.8182150610037,6.29242521347464,tool,0.748251713707305,0,2,1
11,3,tool,0,0,animals,1,t_274.jpg,274,tbd,89.3704194479355,94.0240687082755,4.61259818097388,tool,0.670671354671413,0,2,1
12,3,tool,0,0,animals,1,t_267.jpg,267,tbd,96.5762856038232,103.198172281538,6.58049906311101,tool,0.663872761665971,0,2,1
13,3,animal,0,0,animals,1,a_015.jpg,15,tbd,105.750363197653,110.070222613642,4.26029069359417,animal,0.616021212634678,0,1,1
14,3,tool,0,0,animals,1,t_328.jpg,328,tbd,112.622600838259,118.226830482331,5.56936509320436,tool,0.595708182922863,0,2,1
15,3,tool,0,0,animals,1,t_208.jpg,208,tbd,120.779198122734,125.216024321292,4.3934261316989,tool,0.668714558146803,0,2,1
16,3,animal,0,0,animals,1,a_000.jpg,0,tbd,127.76814595892,131.988148774963,4.18287835886153,animal,0.784863790422605,0,1,1
17,3,tool,0,0,animals,1,t_295.jpg,295,tbd,134.54035540703,139.861212304939,5.27597941219145,tool,0.623010642212648,0,2,1
18,3,animal,0,0,animals,1,a_088.jpg,88,tbd,142.396715765495,147.61728275218,5.17492819181591,animal,0.725280442789881,0,1,1
19,3,animal,0,0,animals,1,a_032.jpg,32,tbd,150.153004632411,156.391261367578,6.19740425877276,animal,0.628580504274851,0,1,1
20,3,tool,0,0,animals,1,t_214.jpg,214,tbd,158.943446510486,164.397554163482,5.41101416350947,tool,0.734514367054089,0,2,1
21,3,animal,0,0,animals,1,a_003.jpg,3,tbd,166.949916992879,174.98965173325,7.98609856151158,animal,0.662889392031502,0,1,1
22,3,animal,0,0,animals,1,a_172.jpg,172,tbd,177.54180961379,182.095212582694,4.50100372334035,animal,0.636496533616537,0,1,1
23,3,tool,0,0,animals,1,t_217.jpg,217,tbd,184.630884428462,191.035778055515,6.36756653441667,tool,0.766284326554796,0,2,1
24,3,tool,0,0,animals,1,t_204.jpg,204,tbd,193.588143771516,200.393535049034,6.7699287214232,tool,0.631860327460799,0,2,1
25,3,animal,0,0,animals,1,a_058.jpg,58,tbd,202.945742001836,209.73439899667,6.75060293847982,animal,0.835922676816153,0,1,1
26,3,animal,0,0,animals,1,a_034.jpg,34,tbd,212.253294543635,218.758238814544,6.4636899457054,animal,1.23880241673942,0,1,1
27,3,animal,0,0,animals,1,a_095.jpg,95,tbd,221.293930545804,226.981564111359,5.64334930320991,animal,0.813744901162409,0,1,1
28,3,tool,0,0,animals,1,t_233.jpg,233,tbd,229.533964466604,237.256731205618,7.68447449551038,tool,1.15796436514529,0,2,1
29,3,animal,0,0,animals,1,a_092.jpg,92,tbd,239.808892934962,246.764429937853,6.91712974191803,animal,0.742561576494154,0,1,1
30,3,tool,0,0,animals,1,t_278.jpg,278,tbd,249.316636569921,255.738357171707,6.3937343373087,tool,1.00394994944736,0,2,1
31,3,animal,0,0,animals,1,a_129.jpg,129,tbd,258.273874423815,265.262744642437,6.94734228345303,animal,0.811892022368284,0,1,1
32,3,tool,0,0,animals,1,t_218.jpg,218,tbd,267.814946142765,272.084932745717,4.2405926116486,tool,0.991939112495857,0,2,1
33,3,tool,0,0,animals,1,t_195.jpg,195,tbd,274.637130717974,279.590995415164,4.9176308776461,tool,1.00514885215307,0,2,1
34,3,tool,0,0,animals,1,t_225.jpg,225,tbd,282.143218083919,289.799269639943,7.62209852837752,tool,0.81523695450278,0,2,1
35,3,animal,0,0,animals,1,a_071.jpg,71,tbd,292.368182009392,300.357848289147,7.9399102674169,animal,0.838997871878291,0,1,1
36,3,tool,0,0,animals,1,t_336.jpg,336,tbd,302.893347900899,307.463597409294,4.53359935029894,tool,1.12550707324817,0,2,1
37,3,tool,0,0,animals,1,t_313.jpg,313,tbd,310.015766836249,314.23555668509,4.18564640896252,tool,1.16475526054137,0,2,1
38,3,tool,0,0,animals,1,t_200.jpg,200,tbd,316.787947739057,323.326405798791,6.51401290589684,tool,0.757232258319618,0,2,1
39,3,animal,0,0,animals,1,a_109.jpg,109,tbd,325.861935559514,332.800575667717,6.89890935412292,animal,0.666432216880366,0,1,1
40,3,tool,0,0,animals,1,t_248.jpg,248,tbd,335.352946836191,340.006457539557,4.60532901825196,tool,1.02179204645563,0,2,1
41,3,animal,0,0,animals,1,a_070.jpg,70,tbd,342.542134837799,348.263291172723,5.68390325935653,animal,0.760178839153923,0,1,1
42,3,animal,0,0,animals,1,a_086.jpg,86,tbd,350.815475994897,357.987822909487,7.13741276001323,animal,0.786046977175374,0,1,1
43,3,tool,0,0,animals,1,t_277.jpg,277,tbd,360.523355556813,366.344419809082,5.77353274673574,tool,0.769715215330507,0,2,1
44,3,tool,0,0,animals,1,t_244.jpg,244,tbd,368.896807976445,372.983295432067,4.05410931279709,tool,0.796090112655747,0,2,1
45,3,animal,0,0,animals,1,a_037.jpg,37,tbd,375.535504309271,379.988803071784,4.41617612482934,animal,0.834794656265785,0,1,1
46,3,animal,0,0,animals,1,a_022.jpg,22,tbd,382.557856243344,388.612437427627,6.00316525644245,animal,0.86639911715929,0,1,1
47,3,tool,0,0,animals,1,t_294.jpg,294,tbd,391.164810520504,398.837552739424,7.64362322243509,tool,0.685690032600633,0,2,1
48,3,tool,0,0,animals,1,t_346.jpg,346,tbd,401.3730449743,406.727134698279,5.3035857089144,tool,0.691380490547544,0,2,1
49,3,animal,0,0,animals,1,a_156.jpg,156,tbd,409.262823863669,414.833867508795,5.53214857843536,animal,0.879922534410525,0,1,1
50,3,animal,0,0,animals,1,a_055.jpg,55,tbd,417.386067084721,422.873537460951,5.43490305561843,animal,0.711589923262636,0,1,1
51,3,tool,0,0,animals,1,t_292.jpg,292,tbd,425.425918251438,430.613161002936,5.1348397410635,tool,0.668187271885017,0,2,1
52,3,tool,0,0,animals,1,t_272.jpg,272,tbd,433.165507474913,441.021559608258,7.81530986005007,tool,0.771146649994989,0,2,1
53,3,animal,0,0,animals,1,a_089.jpg,89,tbd,443.557273470145,451.313566506599,7.70910547064758,animal,0.768494181997085,0,1,1
54,3,animal,0,0,animals,1,a_042.jpg,42,tbd,453.848852188949,461.254895325711,7.36500041170141,animal,0.816535284667225,0,1,1
55,3,animal,0,0,animals,1,a_054.jpg,54,tbd,463.807009907197,468.043428838057,4.18518199948692,animal,1.06822948044464,0,1,1
56,3,tool,0,0,animals,1,t_228.jpg,228,tbd,470.612485858422,478.0016349871,7.35960496394529,tool,0.661354681103603,0,2,1
57,3,animal,0,0,animals,1,a_099.jpg,99,tbd,480.553907369584,485.090799607218,4.50021078612395,animal,0.681595545725031,0,1,1
58,3,animal,0,0,animals,1,a_020.jpg,20,tbd,487.642948827948,493.630969743636,5.95983864229096,animal,0.703489151288522,0,1,1
59,3,tool,0,0,animals,1,t_182.jpg,182,tbd,496.183192091657,504.13952419348,7.91387273707208,tool,0.627357225805554,0,2,1
60,3,tool,0,0,animals,1,t_229.jpg,229,tbd,506.67504080412,512.446243469032,5.73792836580216,tool,0.613874221004608,0,2,1
