trial,phase,object,toShock,seenBefore,shockedCategory,responseSide,filename,num,name,onsetFixationCross,onsetStimulus,interTrialTime,response,reactionTime,wasShocked,buttonPressed,isResponseCorrect
1,1,animal,0,0,animals,2,a_126.jpg,126,tbd,0.0206843293291286,6.59248683047497,6.34441796350239,animal,0.8290887996626,0,2,1
2,1,animal,0,0,animals,2,a_149.jpg,149,tbd,9.16129881026495,17.0846662194195,7.87229048487037,animal,0.583204695515178,0,2,1
3,1,tool,0,0,animals,2,t_346.jpg,346,tbd,19.6367371811172,24.2069517295353,4.52826890064107,tool,0.582259493194783,0,1,1
4,1,tool,0,0,animals,2,t_196.jpg,196,tbd,26.7591051198032,31.6963144348089,4.90221023250839,tool,0.550128066773141,0,1,1
5,1,tool,0,0,animals,2,t_203.jpg,203,tbd,34.248559875659,38.9188443119582,4.63748026486797,tool,0.56585524552554,0,1,1
6,1,animal,0,0,animals,2,a_093.jpg,93,tbd,41.4710737161215,46.1580401555055,4.63013365152046,animal,0.405884162879147,0,2,1
7,1,animal,0,0,animals,2,a_124.jpg,124,tbd,48.7102551266507,53.6307477993282,4.87738994504568,animal,0.52540045791693,0,2,1
8,1,animal,0,0,animals,2,a_120.jpg,120,tbd,56.1829913157759,61.6038606902265,5.38979994810268,animal,0.602606841416332,0,2,1
9,1,tool,0,0,animals,2,t_195.jpg,195,tbd,64.1393638300494,71.445162599779,7.2550980803807,tool,0.679667291065698,0,1,1
10,1,tool,0,0,animals,2,t_237.jpg,237,tbd,73.9973612135036,79.4016313341733,5.35372816631874,tool,0.808521107364186,0,1,1
11,1,tool,0,0,animals,2,t_320.jpg,320,tbd,81.9538565687981,88.342172751964,6.3488222709708,tool,0.809265530365792,0,1,1
12,1,animal,0,0,animals,2,a_006.jpg,6,tbd,90.8943822706356,98.2335806479796,7.28972424025615,animal,0.585161492039333,0,2,1
13,1,tool,0,0,animals,2,t_233.jpg,233,tbd,100.769044658287,104.939006596814,4.12763026264569,tool,0.654218031303117,0,1,1
14,1,animal,0,0,animals,2,a_066.jpg,66,tbd,107.491193984858,112.428371547224,4.90592907442494,animal,0.51989089379731,0,2,1
15,1,animal,0,0,animals,2,a_154.jpg,154,tbd,114.98060287579,122.119575841464,7.08789861047293,animal,0.443000112294158,0,2,1
16,1,animal,0,0,animals,2,a_049.jpg,49,tbd,124.655096942376,129.191953257832,4.49678364959536,animal,0.488813077698978,0,2,1
17,1,tool,0,0,animals,2,t_235.jpg,235,tbd,131.727504828449,139.700294740475,7.93941909273378,tool,0.47885846472991,0,1,1
18,1,animal,0,0,animals,2,a_028.jpg,28,tbd,142.252675210228,147.523434781484,5.22136328203128,animal,0.592019420785846,0,2,1
19,1,tool,0,0,animals,2,t_265.jpg,265,tbd,150.075681184535,157.381383734144,7.26164549890791,tool,0.705467112801898,0,1,1
20,1,tool,0,0,animals,2,t_200.jpg,200,tbd,159.933666700841,165.404613516452,5.43574140714014,tool,0.891464134468379,0,1,1
21,1,tool,0,0,animals,2,t_308.jpg,308,tbd,167.956762737181,172.443647132876,4.4453139507927,tool,0.786713458441909,0,1,1
22,1,animal,0,0,animals,2,a_151.jpg,151,tbd,174.979179459469,180.850449446392,5.83507018655237,animal,0.573134939134889,0,2,1
23,1,animal,0,0,animals,2,a_167.jpg,167,tbd,183.385995885269,188.506667783959,5.06205264992342,animal,0.587190453654102,0,2,1
24,1,animal,0,0,animals,2,a_140.jpg,140,tbd,191.0421853568,197.897580948186,6.81335121624627,animal,0.616633169165652,0,2,1
25,1,tool,0,0,animals,2,t_274.jpg,274,tbd,200.449829917108,206.57141718988,6.06723817357376,tool,0.650093395456224,0,1,1
26,1,tool,0,0,animals,2,t_327.jpg,327,tbd,209.123478208832,214.394284607213,5.22724550471213,tool,0.657467064050479,0,1,1
27,1,animal,0,0,animals,2,a_172.jpg,172,tbd,216.929787426302,221.199768256047,4.23959238137634,animal,0.53621303363002,0,2,1
28,1,animal,0,0,animals,2,a_111.jpg,111,tbd,223.735323034001,228.455497282225,4.65231000061172,animal,0.475755686566345,0,2,1
29,1,animal,0,0,animals,2,a_173.jpg,173,tbd,231.007878393446,236.161904676293,5.11051286328304,animal,0.565609242749815,0,2,1
30,1,tool,0,0,animals,2,t_239.jpg,239,tbd,238.730809348132,245.586206543187,6.80974288988701,tool,0.613632063596469,0,1,1
31,1,tool,0,0,animals,2,t_310.jpg,310,tbd,248.155114101631,252.792018815807,4.59904615039508,tool,0.688071477154153,0,1,1
32,1,animal,0,0,animals,2,a_007.jpg,7,tbd,255.327581932839,261.165526722375,5.80087716417264,animal,0.753853645705476,0,2,1
33,1,animal,0,0,animals,2,a_114.jpg,114,tbd,263.717708657945,269.255519797734,5.4916731854987,animal,0.67314581200867,0,2,1
34,1,tool,0,0,animals,2,t_205.jpg,205,tbd,271.807554195785,279.063294768378,7.2080851534336,tool,0.625682030063899,0,1,1
35,1,tool,0,0,animals,2,t_277.jpg,277,tbd,281.615550793442,285.918836614349,4.25758218053347,tool,0.700390218492203,0,1,1
36,1,animal,0,0,animals,2,a_001.jpg,1,tbd,288.471086866205,292.874489402118,4.36606779607725,animal,0.73196902068662,0,2,1
37,1,tool,0,0,animals,2,t_351.jpg,351,tbd,295.426727466092,299.529924828635,4.04931770978391,tool,1.02281646657161,0,1,1
38,1,tool,0,0,animals,2,t_354.jpg,354,tbd,302.065436628269,307.269464659114,5.15794887169651,tool,1.10251944147308,0,1,1
39,1,tool,0,0,animals,2,t_281.jpg,281,tbd,309.805002117447,317.110793831034,7.26755867724811,tool,0.907528083643456,0,1,1
40,1,animal,0,0,animals,2,a_078.jpg,78,tbd,319.663029008405,326.468334970749,6.76138309997423,animal,0.548303733281955,0,2,1
41,1,animal,0,0,animals,2,a_038.jpg,38,tbd,329.02054962116,336.809905815539,7.72384597969016,animal,0.578232681137251,0,2,1
42,1,animal,0,0,animals,2,a_121.jpg,121,tbd,339.362297831706,347.401821850013,7.98300631998792,animal,0.568472432812541,0,2,1
43,1,tool,0,0,animals,2,t_183.jpg,183,tbd,349.954268922334,354.257423993925,4.23926644595128,tool,0.659089014554183,0,1,1
44,1,tool,0,0,animals,2,t_301.jpg,301,tbd,356.809753787748,362.263997752581,5.39688415228145,tool,0.574862731771418,0,1,1
45,1,tool,0,0,animals,2,t_284.jpg,284,tbd,364.816240627562,369.987104469355,5.12411399710252,tool,0.811049772139995,0,1,1
46,1,animal,0,0,animals,2,a_110.jpg,110,tbd,372.539145923549,377.626444194057,5.03177326426349,animal,0.586966902240192,0,2,1
47,1,tool,0,0,animals,2,t_245.jpg,245,tbd,380.16201949897,384.248310665546,4.02825602826942,tool,0.812306406918196,0,1,1
48,1,animal,0,0,animals,2,a_115.jpg,115,tbd,386.78403190431,393.088983616242,6.236377568919,animal,0.499937406603749,0,2,1
49,1,tool,0,0,animals,2,t_352.jpg,352,tbd,395.641199549588,403.547442343102,7.85277832123854,tool,0.640914637395099,0,1,1
50,1,tool,0,0,animals,2,t_324.jpg,324,tbd,406.099673992402,411.870839131467,5.72331791498232,tool,0.697757315252375,0,1,1
51,1,tool,0,0,animals,2,t_198.jpg,198,tbd,414.423097401667,419.927559609771,5.4484766006803,tool,0.667252008872765,0,1,1
52,1,animal,0,0,animals,2,a_129.jpg,129,tbd,422.496280180446,429.284925628865,6.74199710216988,animal,0.68925177730307,0,2,1
53,1,animal,0,0,animals,2,a_177.jpg,177,tbd,431.837157919632,436.724138407154,4.83046698061229,animal,0.604308654620354,0,2,1
54,1,animal,0,0,animals,2,a_098.jpg,98,tbd,439.25986670206,444.66408454313,5.36101370683588,animal,0.506621818398799,0,2,1
55,1,tool,0,0,animals,2,t_199.jpg,199,tbd,447.21633254985,451.919949881147,4.66619214429019,tool,0.782021444615566,0,1,1
56,1,tool,0,0,animals,2,t_358.jpg,358,tbd,454.472182492648,461.911402006345,7.40452226156686,tool,0.668900580276841,0,1,1
57,1,animal,0,0,animals,2,a_109.jpg,109,tbd,464.446909315706,469.684306163727,5.18496978605083,animal,0.643270747420729,0,2,1
58,1,animal,0,0,animals,2,a_030.jpg,30,tbd,472.236544227702,477.473817913968,5.17388224175461,animal,0.571044396642719,0,2,1
59,1,animal,0,0,animals,2,a_139.jpg,139,tbd,480.026222759485,487.999181377456,7.92704517212857,animal,0.534006064791583,0,2,1
60,1,tool,0,0,animals,2,t_291.jpg,291,tbd,490.551392179063,495.488547610801,4.88192902595293,tool,0.664101762116388,0,1,1
