trial,phase,object,toShock,seenBefore,shockedCategory,responseSide,filename,num,name,onsetFixationCross,onsetStimulus,interTrialTime,response,reactionTime,wasShocked,buttonPressed,isResponseCorrect
1,3,animal,0,0,animals,2,a_071.jpg,71,tbd,0.0313580953197743,4.73505607326024,4.62915927298417,animal,1.27891975337752,0,2,1
2,3,animal,0,0,animals,2,a_004.jpg,4,tbd,7.32071133406498,13.7426514638737,6.38920721499329,animal,0.50675420907919,0,2,1
3,3,tool,0,0,animals,2,t_250.jpg,250,tbd,16.2782017151403,21.0319934767986,4.71606273208818,tool,0.73479233325088,0,1,1
4,3,animal,0,0,animals,2,a_057.jpg,57,tbd,23.6008664556693,29.1553254801393,5.52055969285365,animal,0.6618238540741,0,2,1
5,3,tool,0,0,animals,2,t_321.jpg,321,tbd,31.7075675652941,38.3296721052729,6.58552528556332,tool,1.01492243731082,0,1,1
6,3,animal,0,0,animals,2,a_028.jpg,28,tbd,40.8817400298303,46.7698176304039,5.84762149146429,animal,0.999198589945991,0,2,1
7,3,tool,0,0,animals,2,t_305.jpg,305,tbd,49.338694458128,55.0597825160348,5.6760960200373,tool,0.756595764631129,0,1,1
8,3,tool,0,0,animals,2,t_209.jpg,209,tbd,57.6121977995736,63.0999003935722,5.44471388434205,tool,0.724846576418713,0,1,1
9,3,animal,0,0,animals,2,a_007.jpg,7,tbd,65.6521110464273,71.8569155695996,6.15085941607228,animal,0.909243198151671,0,2,1
10,3,tool,0,0,animals,2,t_193.jpg,193,tbd,74.4093462485498,80.9145556710555,6.46507113337191,tool,0.742033308652026,0,1,1
11,3,tool,0,0,animals,2,t_296.jpg,296,tbd,83.466789096291,88.5708402706396,5.06436367586326,tool,0.65309208961844,0,1,1
12,3,animal,0,0,animals,2,a_150.jpg,150,tbd,91.1063866730528,96.8610075417901,5.71161665698723,animal,0.950349589429607,0,2,1
13,3,tool,0,0,animals,2,t_326.jpg,326,tbd,99.4132220434985,107.069402082578,7.63270335380175,tool,0.730433827990964,0,1,1
14,3,animal,0,0,animals,2,a_062.jpg,62,tbd,109.621630696746,114.809083307744,5.15872911115546,animal,0.669120958581516,0,2,1
15,3,animal,0,0,animals,2,a_149.jpg,149,tbd,117.344644464093,125.250835408256,7.86082394955126,animal,0.975839259748682,0,2,1
16,3,tool,0,0,animals,2,t_309.jpg,309,tbd,127.803252616221,134.792197427518,6.93572713411447,tool,0.830930265878123,0,1,1
17,3,tool,0,0,animals,2,t_260.jpg,260,tbd,137.344423796523,141.814643296608,4.42835719751626,tool,0.747806908857456,0,1,1
18,3,animal,0,0,animals,2,a_156.jpg,156,tbd,144.366855232414,149.93780146009,5.52990238453842,animal,0.614016289024221,0,2,1
19,3,tool,0,0,animals,2,t_323.jpg,323,tbd,152.490220913219,158.694987910074,6.16773802957995,tool,0.582242724743082,0,1,1
20,3,tool,0,0,animals,2,t_219.jpg,219,tbd,161.247431418535,166.718252622635,5.42538293112784,tool,0.776365077213995,0,1,1
21,3,animal,0,0,animals,2,a_164.jpg,164,tbd,169.253996599501,173.490608685156,4.20480180647474,animal,1.33435702797942,0,2,1
22,3,animal,0,0,animals,2,a_038.jpg,38,tbd,176.042881881873,180.846743051179,4.76061011261602,animal,0.753568000289306,0,2,1
23,3,animal,0,0,animals,2,a_064.jpg,64,tbd,183.382243267357,188.553071720131,5.12884103144374,animal,1.09563897826956,0,2,1
24,3,tool,0,0,animals,2,t_350.jpg,350,tbd,191.105283655937,195.925602841315,4.77181519611106,tool,0.980414262988234,0,1,1
25,3,tool,0,0,animals,2,t_282.jpg,282,tbd,198.478001767228,204.149231462925,5.64038959413345,tool,0.543097644796035,0,1,1
26,3,animal,0,0,animals,2,a_078.jpg,78,tbd,206.684774978698,214.47420423229,7.74436065849459,animal,0.626656563678807,0,2,1
27,3,animal,0,0,animals,2,a_029.jpg,29,tbd,217.009891759312,223.832077317646,6.78333635627238,animal,0.910272445586088,0,2,1
28,3,tool,0,0,animals,2,t_249.jpg,249,tbd,226.384295988945,234.173736468358,7.74818233450824,tool,0.84807209482733,0,1,1
29,3,animal,0,0,animals,2,a_142.jpg,142,tbd,236.726141488289,244.065319732519,7.30277946116592,animal,0.622926704405472,0,2,1
30,3,tool,0,0,animals,2,t_208.jpg,208,tbd,246.617591967022,253.856586813407,7.17964048232585,tool,0.902130197111546,0,1,1
31,3,animal,0,0,animals,2,a_154.jpg,154,tbd,256.392219815013,262.213743691372,5.78655306189786,animal,0.600362162349484,0,2,1
32,3,tool,0,0,animals,2,t_290.jpg,290,tbd,264.78254867384,271.087599459455,6.25352137070704,tool,0.593930729023668,0,1,1
33,3,tool,0,0,animals,2,t_312.jpg,312,tbd,273.623153880312,278.410320008354,4.74081899940084,tool,0.527551486143238,0,1,1
34,3,animal,0,0,animals,2,a_132.jpg,132,tbd,280.962529698995,288.835519475159,7.83167291998213,animal,0.601849423286694,0,2,1
35,3,animal,0,0,animals,2,a_166.jpg,166,tbd,291.387766050642,298.827070280659,7.40614575184817,animal,0.464756808338279,0,2,1
36,3,animal,0,0,animals,2,a_003.jpg,3,tbd,301.379309479174,308.484811991834,7.04511317932369,animal,0.721482678915891,0,2,1
37,3,tool,0,0,animals,2,t_184.jpg,184,tbd,311.020549874683,316.908749997076,5.84315491914411,tool,0.864956371364315,0,1,1
38,3,tool,0,0,animals,2,t_335.jpg,335,tbd,319.460826260815,326.583231011326,7.08922095660986,tool,0.531844881640609,0,1,1
39,3,animal,0,0,animals,2,a_013.jpg,13,tbd,329.135379761796,335.123585593321,5.94192141807985,animal,0.601945323874133,0,2,1
40,3,animal,0,0,animals,2,a_109.jpg,109,tbd,337.659034491458,344.948329355934,7.24500313158535,animal,0.73667730899615,0,2,1
41,3,tool,0,0,animals,2,t_211.jpg,211,tbd,347.483887625644,352.638147087087,5.10990862009509,tool,0.541183802652995,0,1,1
42,3,tool,0,0,animals,2,t_317.jpg,317,tbd,355.190251896485,361.82887635492,6.6003065500116,tool,0.777969728166681,0,1,1
43,3,animal,0,0,animals,2,a_025.jpg,25,tbd,364.381112666794,369.952053762666,5.53266471523385,animal,0.799156701596075,0,2,1
44,3,tool,0,0,animals,2,t_246.jpg,246,tbd,372.504464876613,377.608332909708,5.05174731166687,tool,0.718228794461538,0,1,1
45,3,animal,0,0,animals,2,a_075.jpg,75,tbd,380.16073921259,384.447305240305,4.25768014668667,animal,0.600546907291573,0,2,1
46,3,tool,0,0,animals,2,t_271.jpg,271,tbd,386.999719240892,393.137784332694,6.09602811214165,tool,0.480433186515256,0,1,1
47,3,animal,0,0,animals,2,a_085.jpg,85,tbd,395.690213087218,401.995273815703,6.26483651248111,animal,0.595434989061687,0,2,1
48,3,tool,0,0,animals,2,t_263.jpg,263,tbd,404.547510127578,411.319567262518,6.72584333673644,tool,0.654588651950689,0,1,1
49,3,tool,0,0,animals,2,t_299.jpg,299,tbd,413.871801329228,419.376209869577,5.46829143701768,tool,0.586255795446959,0,1,1
50,3,tool,0,0,animals,2,t_245.jpg,245,tbd,421.911759158629,427.883212536832,5.91825696917565,tool,0.576694603175383,0,1,1
51,3,animal,0,0,animals,2,a_138.jpg,138,tbd,430.418748675636,437.841399560296,7.38384321958691,animal,0.480141956640182,0,2,1
52,3,tool,0,0,animals,2,t_281.jpg,281,tbd,440.39359032741,446.048154489714,5.6161305898187,tool,0.696625503435826,0,1,1
53,3,animal,0,0,animals,2,a_066.jpg,66,tbd,448.600376689128,456.022988764519,7.38979115116794,animal,0.500237138774537,0,2,1
54,3,tool,0,0,animals,2,t_274.jpg,274,tbd,458.575201983277,464.696630087345,6.0863697434672,tool,0.572004455084425,0,1,1
55,3,animal,0,0,animals,2,a_032.jpg,32,tbd,467.232322425433,474.988421574451,7.72086012411271,animal,0.601698997283165,0,2,1
56,3,tool,0,0,animals,2,t_353.jpg,353,tbd,477.540803501264,485.113712002482,7.53664612587028,tool,0.619891883833589,0,1,1
57,3,tool,0,0,animals,2,t_207.jpg,207,tbd,487.649150316274,494.788037779662,7.10976381887591,tool,0.614015968287276,0,1,1
58,3,animal,0,0,animals,2,a_147.jpg,147,tbd,497.3404360641,501.577043659427,4.19490091332027,animal,0.730356850931457,0,2,1
59,3,animal,0,0,animals,2,a_172.jpg,172,tbd,504.129337704097,510.884918861651,6.71742461378352,animal,0.744932136421085,0,2,1
60,3,animal,0,0,animals,2,a_044.jpg,44,tbd,513.43701950146,520.676145850322,7.20498519957352,animal,0.423147179533771,0,2,1
