trial,phase,object,toShock,seenBefore,shockedCategory,responseSide,filename,num,name,onsetFixationCross,onsetStimulus,interTrialTime,response,reactionTime,wasShocked,buttonPressed,isResponseCorrect
1,3,tool,0,0,animals,1,t_293.jpg,293,tbd,0.0147937776973777,6.95341187913345,6.85629818235878,tool,0.946485197080619,0,2,1
2,3,tool,0,0,animals,1,t_333.jpg,333,tbd,9.52239503125702,14.8099000708021,5.22975929130671,tool,0.833365894332019,0,2,1
3,3,animal,0,0,animals,1,a_122.jpg,122,tbd,17.3621828844543,21.7990470478289,4.39360700379448,animal,0.886324977235745,0,1,1
4,3,animal,0,0,animals,1,a_134.jpg,134,tbd,24.3345371513974,30.0225244477347,5.62564815227614,animal,0.817233897864298,0,1,1
5,3,animal,0,0,animals,1,a_019.jpg,19,tbd,32.5745843507252,37.3114378336322,4.6977662245895,animal,1.13760462876417,0,1,1
6,3,tool,0,0,animals,1,t_218.jpg,218,tbd,39.8638492619252,45.8185448349195,5.90197266050771,tool,0.860807640078292,0,2,1
7,3,tool,0,0,animals,1,t_349.jpg,349,tbd,48.3707432953283,55.1261095888631,6.70552952055581,tool,1.48654320516971,0,2,1
8,3,animal,0,0,animals,1,a_091.jpg,91,tbd,57.6615881459797,63.1826317142695,5.45121965013484,animal,0.72737428026312,0,1,1
9,3,animal,0,0,animals,1,a_000.jpg,0,tbd,65.7181840403823,73.424323000002,7.65328001771157,animal,1.02707590071168,0,1,1
10,3,tool,0,0,animals,1,t_195.jpg,195,tbd,75.9765102346946,83.715995346347,7.70127005818763,tool,0.772807963379364,0,2,1
11,3,tool,0,0,animals,1,t_239.jpg,239,tbd,86.2515784629973,91.2721843887002,4.96664615606076,tool,0.813881898836826,0,2,1
12,3,tool,0,0,animals,1,t_296.jpg,296,tbd,93.8243620013495,101.396872915152,7.51839119246881,tool,0.685579333054648,0,2,1
13,3,animal,0,0,animals,1,a_079.jpg,79,tbd,103.932439674329,110.804716997002,6.81775078658425,animal,0.845119540525047,0,1,1
14,3,tool,0,0,animals,1,t_358.jpg,358,tbd,113.356911287859,117.4265556347,4.00641635241461,tool,0.782527509693409,0,2,1
15,3,animal,0,0,animals,1,a_164.jpg,164,tbd,119.978932423639,126.434149992463,6.40147787006144,animal,0.904240900466448,0,1,1
16,3,animal,0,0,animals,1,a_175.jpg,175,tbd,128.986278211958,136.091934658198,7.05365454711908,animal,0.75975886947117,0,1,1
17,3,animal,0,0,animals,1,a_073.jpg,73,tbd,138.644130552729,146.43348478856,7.73968807177117,animal,0.732686930908585,0,1,1
18,3,tool,0,0,animals,1,t_248.jpg,248,tbd,148.985886274076,155.290869754631,6.24132609476005,tool,0.692630045390615,0,2,1
19,3,animal,0,0,animals,1,a_172.jpg,172,tbd,157.843087138392,164.281321480682,6.3938508611539,animal,0.775502135404167,0,1,1
20,3,animal,0,0,animals,1,a_028.jpg,28,tbd,166.83373932367,173.522373542028,6.65698005642654,animal,0.985810486599348,0,1,1
21,3,animal,0,0,animals,1,a_015.jpg,15,tbd,176.057905661851,180.311192792272,4.20724990998954,animal,0.724222740464029,0,1,1
22,3,tool,0,0,animals,1,t_257.jpg,257,tbd,182.863400874724,187.533749041933,4.63830064936895,tool,0.704952995790791,0,2,1
23,3,animal,0,0,animals,1,a_154.jpg,154,tbd,190.085964822019,195.990596905567,5.87120247033903,animal,0.661406836766218,0,1,1
24,3,tool,0,0,animals,1,t_286.jpg,286,tbd,198.542856947051,205.681655558013,7.08084807750985,tool,1.12976971992839,0,2,1
25,3,tool,0,0,animals,1,t_241.jpg,241,tbd,208.234036516503,215.573381595357,7.29430109486418,tool,0.723367020111255,0,2,1
26,3,animal,0,0,animals,1,a_069.jpg,69,tbd,218.125436045857,224.947520302238,6.77434110875426,animal,0.735591504938839,0,1,1
27,3,animal,0,0,animals,1,a_085.jpg,85,tbd,227.49972774322,234.238231085758,6.69093833328804,animal,0.822259170159668,0,1,1
28,3,animal,0,0,animals,1,a_150.jpg,150,tbd,236.773917799737,243.262381451347,6.43916290413482,animal,0.876429026800906,0,1,1
29,3,tool,0,0,animals,1,t_214.jpg,214,tbd,245.814618079193,252.369770827521,6.49858366670718,tool,0.801378054028646,0,2,1
30,3,tool,0,0,animals,1,t_205.jpg,205,tbd,254.922020605493,261.327066917989,6.36108681976375,tool,0.883439005821401,0,2,1
31,3,animal,0,0,animals,1,a_169.jpg,169,tbd,263.879289433506,269.500395192266,5.58106297580295,animal,0.970419066703926,0,1,1
32,3,animal,0,0,animals,1,a_174.jpg,174,tbd,272.052607765005,279.041453892822,6.9463794040795,animal,0.797712697135466,0,1,1
33,3,animal,0,0,animals,1,a_126.jpg,126,tbd,281.59369533169,288.098662390626,6.44031407437496,animal,1.13787981919222,0,1,1
34,3,tool,0,0,animals,1,t_222.jpg,222,tbd,290.634393686737,295.238020683752,4.5493264102854,tool,0.675753944267854,0,2,1
35,3,animal,0,0,animals,1,a_118.jpg,118,tbd,297.790183863337,304.44533176857,6.59738461479151,animal,0.650713539705976,0,1,1
36,3,tool,0,0,animals,1,t_298.jpg,298,tbd,306.997664296111,313.152584640028,6.11124578641781,tool,0.951967516416062,0,2,1
37,3,tool,0,0,animals,1,t_250.jpg,250,tbd,315.704777006476,322.176513377895,6.44187263084947,tool,0.941296991524268,0,2,1
38,3,tool,0,0,animals,1,t_192.jpg,192,tbd,324.728721139612,329.682666834726,4.90907598576005,tool,0.862405861411844,0,2,1
39,3,animal,0,0,animals,1,a_033.jpg,33,tbd,332.23487908673,340.024414537704,7.75117009295541,animal,0.84609104612764,0,1,1
40,3,tool,0,0,animals,1,t_345.jpg,345,tbd,342.576598565049,347.347052221922,4.73387216284617,tool,0.807697811835169,0,2,1
41,3,tool,0,0,animals,1,t_251.jpg,251,tbd,349.882558682963,357.805488364112,7.88506932098773,tool,0.835651450266596,0,2,1
42,3,animal,0,0,animals,1,a_076.jpg,76,tbd,360.341029785242,367.213145457594,6.8177813688696,animal,1.03637592595351,0,1,1
43,3,animal,0,0,animals,1,a_072.jpg,72,tbd,369.74869393489,375.786636857572,6.01657174786566,animal,0.892134446031832,0,1,1
44,3,tool,0,0,animals,1,t_206.jpg,206,tbd,378.322335118003,383.693066659477,5.3192642998098,tool,1.21308057510032,0,2,1
45,3,tool,0,0,animals,1,t_338.jpg,338,tbd,386.228754014925,391.983310453179,5.70870886016945,tool,0.87906097628138,0,2,1
46,3,tool,0,0,animals,1,t_341.jpg,341,tbd,394.535514045344,399.722923217268,5.14297226438422,tool,1.0898096963092,0,2,1
47,3,animal,0,0,animals,1,a_031.jpg,31,tbd,402.275130978985,410.231468713976,7.90447583751047,animal,0.826716421187029,0,1,1
48,3,animal,0,0,animals,1,a_061.jpg,61,tbd,412.783689625818,419.906050580081,7.07858446163829,animal,1.11743875115826,0,1,1
49,3,tool,0,0,animals,1,t_311.jpg,311,tbd,422.458218570687,428.09598970783,5.60559048244541,tool,0.661723081244418,0,2,1
50,3,tool,0,0,animals,1,t_329.jpg,329,tbd,430.648196186608,437.169841453317,6.47930713955784,tool,0.750306815950353,0,2,1
51,3,tool,0,0,animals,1,t_245.jpg,245,tbd,439.722234599728,444.092323067998,4.32681856834815,tool,0.922077281474685,0,2,1
52,3,animal,0,0,animals,1,a_101.jpg,101,tbd,446.627901694362,454.317370143843,7.65590559396227,animal,0.787430902778397,0,1,1
53,3,animal,0,0,animals,1,a_083.jpg,83,tbd,456.852721369258,464.075233357522,7.19095117172371,animal,0.80186075984966,0,1,1
54,3,animal,0,0,animals,1,a_097.jpg,97,tbd,466.62746004259,471.631192753784,4.95282941488211,animal,1.08227724035669,0,1,1
55,3,tool,0,0,animals,1,t_325.jpg,325,tbd,474.183593277095,481.639519349014,7.39295424125613,tool,0.774326642490905,0,2,1
56,3,tool,0,0,animals,1,t_315.jpg,315,tbd,484.191697282398,491.280741592227,7.04651537853638,tool,0.716458072541627,0,2,1
57,3,tool,0,0,animals,1,t_182.jpg,182,tbd,493.832867245844,497.969461126032,4.1005856427756,tool,0.770951871294983,0,2,1
58,3,animal,0,0,animals,1,a_092.jpg,92,tbd,500.505024998597,508.261210769455,7.70916122814877,animal,0.993660469969655,0,1,1
59,3,animal,0,0,animals,1,a_103.jpg,103,tbd,510.796722041518,517.802291921445,6.96190503514331,animal,0.82583985307474,0,1,1
60,3,tool,0,0,animals,1,t_272.jpg,272,tbd,520.35447466585,524.674330617453,4.25305723256467,tool,1.49813648398049,0,2,1
