trial,phase,object,toShock,seenBefore,shockedCategory,responseSide,filename,num,name,onsetFixationCross,onsetStimulus,interTrialTime,response,reactionTime,wasShocked,buttonPressed,isResponseCorrect
1,3,tool,0,0,animals,1,t_342.jpg,342,tbd,0.014667426858523,5.26877829620616,5.15892979736298,tool,1.11171494396831,0,2,1
2,3,animal,0,0,animals,1,a_164.jpg,164,tbd,7.85440831090909,15.3937103002399,7.50295626374273,animal,0.776179546294316,0,1,1
3,3,animal,0,0,animals,1,a_052.jpg,52,tbd,17.9458862994597,25.9023095448433,7.92418338880833,animal,1.48503589262737,0,1,1
4,3,tool,0,0,animals,1,t_196.jpg,196,tbd,28.4545323714742,33.8252418901398,5.32677474529147,tool,1.3284155230881,0,2,1
5,3,tool,0,0,animals,1,t_250.jpg,250,tbd,36.3776395177219,41.6819724644615,5.25409568381042,tool,0.754981803760529,0,2,1
6,3,animal,0,0,animals,1,a_047.jpg,47,tbd,44.2340458282606,50.8057754788642,6.53488905900927,animal,1.02955593091019,0,1,1
7,3,tool,0,0,animals,1,t_287.jpg,287,tbd,53.3581929920592,57.4615099764251,4.05470715192969,tool,0.757092565340827,0,2,1
8,3,animal,0,0,animals,1,a_004.jpg,4,tbd,60.0135923208236,65.3678298166219,5.31493424649983,animal,0.988096994059106,0,1,1
9,3,tool,0,0,animals,1,t_335.jpg,335,tbd,67.920051039574,73.5743922612951,5.6179061761806,tool,0.497785457067948,0,2,1
10,3,tool,0,0,animals,1,t_278.jpg,278,tbd,76.1267549286868,83.2657556830573,7.10471741259807,tool,0.804887315026008,0,2,1
11,3,animal,0,0,animals,1,a_002.jpg,2,tbd,85.801314686878,90.3048200072417,4.46519625540651,animal,1.0891207182367,0,1,1
12,3,animal,0,0,animals,1,a_130.jpg,130,tbd,92.8570835673049,98.0445102791996,5.14760581998028,animal,1.0327414777903,0,1,1
13,3,animal,0,0,animals,1,a_139.jpg,139,tbd,100.596733747302,108.469813823458,7.81407146565472,animal,1.0988653099912,0,1,1
14,3,tool,0,0,animals,1,t_189.jpg,189,tbd,111.021897450798,118.961543653673,7.89503831329481,tool,0.765534328719696,0,2,1
15,3,animal,0,0,animals,1,a_063.jpg,63,tbd,121.513792459894,128.052282667192,6.4970050496785,animal,0.790188960528212,0,1,1
16,3,tool,0,0,animals,1,t_306.jpg,306,tbd,130.604532435621,138.277178684682,7.6155980473508,tool,0.836738614261776,0,2,1
17,3,tool,0,0,animals,1,t_203.jpg,203,tbd,140.812814985803,144.932759870582,4.09217180554029,tool,0.787421973725031,0,2,1
18,3,tool,0,0,animals,1,t_265.jpg,265,tbd,147.46830347909,152.58896649108,5.08008019692228,tool,0.80145865049235,0,2,1
19,3,animal,0,0,animals,1,a_123.jpg,123,tbd,155.141238711008,159.811533646719,4.62944788832211,animal,0.817227299990009,0,1,1
20,3,animal,0,0,animals,1,a_038.jpg,38,tbd,162.363765133214,169.652888472765,7.26365354375298,animal,1.30328940981462,0,1,1
21,3,animal,0,0,animals,1,a_096.jpg,96,tbd,172.188472173234,177.726152843648,5.49515519575259,animal,0.848284778391189,0,1,1
22,3,tool,0,0,animals,1,t_244.jpg,244,tbd,180.278426667254,187.600720491937,7.28755485522396,tool,0.777158431621956,0,2,1
23,3,animal,0,0,animals,1,a_058.jpg,58,tbd,190.136446919788,194.473287711724,4.28415911322025,animal,0.942934522187443,0,1,1
24,3,tool,0,0,animals,1,t_337.jpg,337,tbd,197.025403733369,203.46366211291,6.40211993439261,tool,0.751866818732196,0,2,1
25,3,tool,0,0,animals,1,t_238.jpg,238,tbd,206.032750825836,212.621344759056,6.55282623503165,tool,1.02258057110885,0,2,1
26,3,tool,0,0,animals,1,t_286.jpg,286,tbd,215.156835125439,220.177505578497,4.98766514805345,tool,1.48374557294346,0,2,1
27,3,animal,0,0,animals,1,a_112.jpg,112,tbd,222.729714934229,227.483245913448,4.70963237215625,animal,0.702261195337542,0,1,1
28,3,tool,0,0,animals,1,t_270.jpg,270,tbd,230.018977152335,236.357352023078,6.29954621179063,tool,0.68951836634642,0,2,1
29,3,tool,0,0,animals,1,t_274.jpg,274,tbd,238.909570359409,243.880133558453,4.93163586054543,tool,1.58207832467633,0,2,1
30,3,animal,0,0,animals,1,a_094.jpg,94,tbd,246.432380119525,253.738187167499,7.25609476386739,animal,0.973394469997857,0,1,1
31,3,animal,0,0,animals,1,a_170.jpg,170,tbd,256.290416729579,263.029057554358,6.70063796309581,animal,1.10491759247498,0,1,1
32,3,tool,0,0,animals,1,t_305.jpg,305,tbd,265.564640613355,273.454269047472,7.85466168646794,tool,0.667097979359369,0,2,1
33,3,animal,0,0,animals,1,a_088.jpg,88,tbd,276.006498288817,283.028569394636,6.98093026531295,animal,1.46222292515495,0,1,1
34,3,animal,0,0,animals,1,a_055.jpg,55,tbd,285.580967984426,292.46982697362,6.83971454194895,animal,0.841328021260324,0,1,1
35,3,tool,0,0,animals,1,t_208.jpg,208,tbd,295.021943957473,302.911673423333,7.84315204231302,tool,1.18490843226391,0,2,1
36,3,animal,0,0,animals,1,a_106.jpg,106,tbd,305.463872194787,310.784748046982,5.28136886235464,animal,0.6471331448206,0,1,1
37,3,animal,0,0,animals,1,a_008.jpg,8,tbd,313.336937837837,319.575047203575,6.19722026729481,animal,0.603206788301122,0,1,1
38,3,tool,0,0,animals,1,t_304.jpg,304,tbd,322.127467924127,326.497524104191,4.3277241138535,tool,0.94001422372412,0,2,1
39,3,tool,0,0,animals,1,t_232.jpg,232,tbd,329.049774193355,334.504081545387,5.41529814446614,tool,0.673760301126549,0,2,1
40,3,tool,0,0,animals,1,t_338.jpg,338,tbd,337.056319767331,343.061054788333,5.96960212970304,tool,0.617145640682793,0,2,1
41,3,animal,0,0,animals,1,a_160.jpg,160,tbd,345.613289161449,351.56803495917,5.90774223355964,animal,0.619461993841014,0,1,1
42,3,animal,0,0,animals,1,a_087.jpg,87,tbd,354.120235334302,358.690679018509,4.51721234278623,animal,0.625052874678204,0,1,1
43,3,tool,0,0,animals,1,t_308.jpg,308,tbd,361.226030322614,365.279364065625,4.02089699331071,tool,0.693734549053715,0,2,1
44,3,animal,0,0,animals,1,a_117.jpg,117,tbd,367.831423108371,375.220627209169,7.33174816174364,animal,0.76090418828926,0,1,1
45,3,animal,0,0,animals,1,a_011.jpg,11,tbd,377.772866072584,384.327971030132,6.51316479277839,animal,0.677916394206477,0,1,1
46,3,animal,0,0,animals,1,a_042.jpg,42,tbd,386.880282379813,391.350474166927,4.43559383629473,animal,1.14862841461036,0,1,1
47,3,tool,0,0,animals,1,t_263.jpg,263,tbd,393.90270501195,400.074059337648,6.134491015294,tool,0.762487981129652,0,2,1
48,3,tool,0,0,animals,1,t_257.jpg,257,tbd,402.60979538757,408.480954577674,5.84146482976704,tool,1.10390342622122,0,2,1
49,3,tool,0,0,animals,1,t_314.jpg,314,tbd,411.016665930948,415.886980944713,4.83814601544906,tool,0.872181511762847,0,2,1
50,3,animal,0,0,animals,1,a_070.jpg,70,tbd,418.422701278586,424.14374750558,5.66438856677642,animal,0.768757401675884,0,1,1
51,3,tool,0,0,animals,1,t_242.jpg,242,tbd,426.679443463541,430.749239077929,4.02303410793854,tool,0.886538603485405,0,2,1
52,3,tool,0,0,animals,1,t_202.jpg,202,tbd,433.284802892785,439.055863360443,5.72384549945961,tool,0.620241381569485,0,2,1
53,3,animal,0,0,animals,1,a_101.jpg,101,tbd,441.591588184616,446.311958942245,4.68278410874193,animal,0.614441518074727,0,1,1
54,3,animal,0,0,animals,1,a_031.jpg,31,tbd,448.864212880238,452.967359553952,4.07148089837632,animal,1.08633127993471,0,1,1
55,3,tool,0,0,animals,1,t_307.jpg,307,tbd,455.502949348399,459.839478705978,4.29265636436793,tool,1.134491989043,0,2,1
56,3,animal,0,0,animals,1,a_036.jpg,36,tbd,462.391898143588,468.146323333912,5.70370081047142,animal,1.03297272822283,0,1,1
57,3,animal,0,0,animals,1,a_172.jpg,172,tbd,470.69868632204,477.92112165531,7.15587370374127,animal,0.600526400133731,0,1,1
58,3,tool,0,0,animals,1,t_348.jpg,348,tbd,480.473336463548,486.177828238602,5.65711682694253,tool,0.561210939903958,0,2,1
59,3,tool,0,0,animals,1,t_322.jpg,322,tbd,488.730022199021,496.536270900041,7.76480547486597,tool,0.868171674157566,0,2,1
60,3,animal,0,0,animals,1,a_061.jpg,61,tbd,499.088513291549,506.461065757494,7.32234528704493,animal,0.592770048925559,0,1,1
