trial,phase,object,toShock,seenBefore,shockedCategory,responseSide,filename,num,name,onsetFixationCross,onsetStimulus,interTrialTime,response,reactionTime,wasShocked,buttonPressed,isResponseCorrect
1,1,animal,0,0,tools,1,a_006.jpg,6,tbd,0.0311834167405323,7.03679148029187,6.92828056498029,animal,0.829183017372088,0,1,1
2,1,tool,0,0,tools,1,t_358.jpg,358,tbd,9.60562649128678,17.4789124797562,7.84363538118176,tool,0.928409338737765,0,2,1
3,1,animal,0,0,tools,1,a_140.jpg,140,tbd,20.0143550565208,27.1867694136763,7.14487203089257,animal,0.687004734513721,0,1,1
4,1,animal,0,0,tools,1,a_010.jpg,10,tbd,29.7223229649908,34.4760341976671,4.71056664573256,animal,0.541034393584596,0,1,1
5,1,tool,0,0,tools,1,t_245.jpg,245,tbd,37.028266646369,43.6834353661716,6.61486218527109,tool,0.656012044721138,0,2,1
6,1,animal,0,0,tools,1,a_071.jpg,71,tbd,46.235762752638,52.6240720008591,6.35011776652839,animal,0.729741161620041,0,1,1
7,1,animal,0,0,tools,1,a_067.jpg,67,tbd,55.1764074057173,61.2478791848253,6.02584367728101,animal,0.563314619073935,0,1,1
8,1,tool,0,0,tools,1,t_320.jpg,320,tbd,63.8000680134728,70.8558606283414,7.02086115247744,tool,0.708683259847021,0,2,1
9,1,tool,0,0,tools,1,t_195.jpg,195,tbd,73.3912185308836,79.396035660222,5.95626894146566,tool,0.854892228130666,0,2,1
10,1,animal,0,0,tools,1,a_037.jpg,37,tbd,81.9481783029305,86.1015236403318,4.11420612086903,animal,0.666644432867542,0,1,1
11,1,tool,0,0,tools,1,t_259.jpg,259,tbd,88.6535883442666,95.1754079933053,6.47167788800175,tool,0.968144962723272,0,2,1
12,1,tool,0,0,tools,1,t_281.jpg,281,tbd,97.7277786790892,104.349517759322,6.57437393014628,tool,0.818429711868703,0,2,1
13,1,animal,0,0,tools,1,a_004.jpg,4,tbd,106.90191346249,113.056846120824,6.11156652914555,animal,0.677082455185882,0,1,1
14,1,animal,0,0,tools,1,a_012.jpg,12,tbd,115.592332959114,120.87986769479,5.25820990128089,animal,0.84272191234686,0,1,1
15,1,animal,0,0,tools,1,a_111.jpg,111,tbd,123.415447225695,130.954557735819,7.49497699461034,animal,0.651356245434727,0,1,1
16,1,tool,0,0,tools,1,t_242.jpg,242,tbd,133.523631053431,137.927121042629,4.3596979853685,tool,0.744167211517379,0,2,1
17,1,animal,0,0,tools,1,a_109.jpg,109,tbd,140.479309229805,148.185480376936,7.65804063336643,animal,0.747215804256484,0,1,1
18,1,animal,0,0,tools,1,a_099.jpg,99,tbd,150.737641622314,158.677414836522,7.90728696766473,animal,0.839655679144016,0,1,1
19,1,tool,0,0,tools,1,t_208.jpg,208,tbd,161.212845546066,166.383674506703,5.14334693594872,tool,0.677667156350253,0,2,1
20,1,animal,0,0,tools,1,a_116.jpg,116,tbd,168.935872957421,173.055586591767,4.06615093029766,animal,0.676697572357625,0,1,1
21,1,tool,0,0,tools,1,t_184.jpg,184,tbd,175.591337074795,183.464290460352,7.82094437570738,tool,0.970842991353493,0,2,1
22,1,tool,0,0,tools,1,t_359.jpg,359,tbd,186.016478326793,190.08622871745,4.03551688090061,tool,0.857194468918351,0,2,1
23,1,animal,0,0,tools,1,a_130.jpg,130,tbd,192.63855802833,199.577210912769,6.89933767187042,animal,0.97952755165079,0,1,1
24,1,animal,0,0,tools,1,a_142.jpg,142,tbd,202.129640613921,207.66736041409,5.51189072327136,animal,0.67289525074375,0,1,1
25,1,tool,0,0,tools,1,t_336.jpg,336,tbd,210.202895683469,217.425139858267,7.17179956878466,tool,0.812406295598521,0,2,1
26,1,tool,0,0,tools,1,t_282.jpg,282,tbd,219.977501563452,227.700171675248,7.68125721998178,tool,1.2278042387843,0,2,1
27,1,animal,0,0,tools,1,a_141.jpg,141,tbd,230.252599772721,237.541532274537,7.24423186395159,animal,1.66483965313637,0,1,1
28,1,animal,0,0,tools,1,a_151.jpg,151,tbd,240.077269928137,246.131876783156,6.00829956700489,animal,1.02475962316657,0,1,1
29,1,tool,0,0,tools,1,t_232.jpg,232,tbd,248.667591023052,254.221809146414,5.52735595428949,tool,1.26522896211827,0,2,1
30,1,tool,0,0,tools,1,t_343.jpg,343,tbd,256.77421543386,262.595308103381,5.77687600674019,tool,0.632569152352517,0,2,1
31,1,tool,0,0,tools,1,t_289.jpg,289,tbd,265.131029720197,273.003800927882,7.84063071279056,tool,0.695889754617383,0,2,1
32,1,animal,0,0,tools,1,a_145.jpg,145,tbd,275.556203687236,282.861990208126,7.26667494626359,animal,0.731216866533032,0,1,1
33,1,tool,0,0,tools,1,t_333.jpg,333,tbd,285.414190903994,291.151942328702,5.70205457741136,tool,0.710412025220649,0,2,1
34,1,tool,0,0,tools,1,t_211.jpg,211,tbd,293.68767645421,301.34393727904,7.61456188164988,tool,0.975025705495682,0,2,1
35,1,animal,0,0,tools,1,a_008.jpg,8,tbd,303.879315387931,308.432890115498,4.52400669376,animal,0.923332413490243,0,1,1
36,1,animal,0,0,tools,1,a_089.jpg,89,tbd,310.98513218627,315.939028675882,4.91403946006563,animal,1.03343359918654,0,1,1
37,1,tool,0,0,tools,1,t_197.jpg,197,tbd,318.491221674093,324.212233261633,5.69121588311436,tool,0.941622686988012,0,2,1
38,1,tool,0,0,tools,1,t_210.jpg,210,tbd,326.764573477526,331.651828788267,4.86449738833678,tool,0.736338374043044,0,2,1
39,1,animal,0,0,tools,1,a_056.jpg,56,tbd,334.170701197044,339.124615006383,4.91864218876429,animal,0.92984559316119,0,1,1
40,1,animal,0,0,tools,1,a_030.jpg,30,tbd,341.676804476502,347.448089138408,5.73619858524128,animal,0.787677253109905,0,1,1
41,1,animal,0,0,tools,1,a_159.jpg,159,tbd,349.983607729532,356.104974435628,6.08268173232142,animal,0.570162967542274,0,1,1
42,1,tool,0,0,tools,1,t_220.jpg,220,tbd,358.640568078903,365.696078446364,7.01259566554089,tool,0.909472782823286,0,2,1
43,1,tool,0,0,tools,1,t_290.jpg,290,tbd,368.24848697896,375.070432805418,6.78030560056376,tool,1.88555039059702,0,2,1
44,1,animal,0,0,tools,1,a_120.jpg,120,tbd,377.622722345072,384.76164965097,7.10081651247769,animal,0.686694262364654,0,1,1
45,1,animal,0,0,tools,1,a_027.jpg,27,tbd,387.297357155415,394.75332399391,7.40251606715957,animal,0.623424657074793,0,1,1
46,1,animal,0,0,tools,1,a_028.jpg,28,tbd,397.288784211139,403.460567360455,6.13742101384124,animal,0.662524582920923,0,1,1
47,1,tool,0,0,tools,1,t_295.jpg,295,tbd,406.012621159377,413.134826910039,7.07124235704925,tool,0.63762298463098,0,2,1
48,1,tool,0,0,tools,1,t_254.jpg,254,tbd,415.687205934952,423.660080034647,7.94157939034132,tool,0.690825338060677,0,2,1
49,1,tool,0,0,tools,1,t_194.jpg,194,tbd,426.212391384328,432.750978133069,6.51663827340982,tool,0.597283415339916,0,2,1
50,1,animal,0,0,tools,1,a_018.jpg,18,tbd,435.30317337643,442.975967484644,7.63545357644721,animal,0.610358526507298,0,1,1
51,1,animal,0,0,tools,1,a_150.jpg,150,tbd,445.511544449663,449.948151681868,4.39413617710723,animal,0.668451778485178,0,1,1
52,1,tool,0,0,tools,1,t_200.jpg,200,tbd,452.48388997694,458.021638001849,5.49663475002309,tool,0.648605936887179,0,2,1
53,1,tool,0,0,tools,1,t_256.jpg,256,tbd,460.573851527145,465.811265537906,5.20525909096566,tool,0.598343446798026,0,2,1
54,1,tool,0,0,tools,1,t_188.jpg,188,tbd,468.363432877263,476.252993956885,7.84230826706765,tool,0.721032546146489,0,2,1
55,1,animal,0,0,tools,1,a_103.jpg,103,tbd,478.78869632956,485.260309296518,6.43649684862753,animal,0.632085803666996,0,1,1
56,1,tool,0,0,tools,1,t_301.jpg,301,tbd,487.812739639141,495.668787687913,7.80357881729872,tool,0.605023729764071,0,2,1
57,1,animal,0,0,tools,1,a_108.jpg,108,tbd,498.221130790428,505.26015438118,6.99984989707306,animal,1.25009953885183,0,1,1
58,1,tool,0,0,tools,1,t_342.jpg,342,tbd,507.812357322197,515.434967520566,7.57954227764856,tool,0.631672696097667,0,2,1
59,1,tool,0,0,tools,1,t_196.jpg,196,tbd,517.987271493327,524.575749320227,6.54892287953679,tool,0.802257576872762,0,2,1
60,1,animal,0,0,tools,1,a_019.jpg,19,tbd,527.14482039269,531.514718770794,4.3358879030064,animal,1.01664982122747,0,1,1
