trial,phase,object,toShock,seenBefore,shockedCategory,responseSide,filename,num,name,onsetFixationCross,onsetStimulus,interTrialTime,response,reactionTime,wasShocked,buttonPressed,isResponseCorrect
1,1,tool,0,0,animals,2,t_234.jpg,234,tbd,0.0184013604994107,7.07395629240546,7.00385041236541,tool,1.03801377928812,0,1,1
2,1,tool,0,0,animals,2,t_190.jpg,190,tbd,9.62601474548774,14.1963970376501,4.54341524171211,tool,0.73380328301937,0,1,1
3,1,tool,0,0,animals,2,t_242.jpg,242,tbd,16.7652208845884,20.9850501836791,4.16964467411681,tool,0.78435348570747,0,1,1
4,1,animal,0,0,animals,2,a_036.jpg,36,tbd,23.5541450506244,30.2260450227523,6.6322792223449,animal,0.640732767463305,0,2,1
5,1,tool,0,0,animals,2,t_302.jpg,302,tbd,32.7782433157436,39.5335638875094,6.7129907264322,tool,0.601525954821227,0,1,1
6,1,animal,0,0,animals,2,a_028.jpg,28,tbd,42.0857987441459,46.3891224116333,4.25751994681714,animal,0.842178891732146,0,2,1
7,1,tool,0,0,animals,2,t_264.jpg,264,tbd,48.9246390222734,55.9635379305282,7.00535446046297,tool,0.689114810093088,0,1,1
8,1,animal,0,0,animals,2,a_060.jpg,60,tbd,58.5157618822177,64.1701972609444,5.61205967632705,animal,0.913716306445167,0,2,1
9,1,animal,0,0,animals,2,a_175.jpg,175,tbd,66.7223904221955,71.4427660912061,4.68852368212826,animal,0.663365664287994,0,2,1
10,1,animal,0,0,animals,2,a_116.jpg,116,tbd,73.9949563658538,78.2981302506869,4.26373177717702,animal,0.743849625837356,0,2,1
11,1,tool,0,0,animals,2,t_218.jpg,218,tbd,80.8338293588222,85.9209852235508,5.05584406401623,tool,0.476678744355013,0,1,1
12,1,tool,0,0,animals,2,t_215.jpg,215,tbd,88.4733640896357,92.94336602366,4.42367344765272,tool,1.21255098456186,0,1,1
13,1,animal,0,0,animals,2,a_042.jpg,42,tbd,95.4956894028082,102.517793730436,6.99092739003193,animal,1.06947134412985,0,2,1
14,1,tool,0,0,animals,2,t_187.jpg,187,tbd,105.053442483375,109.289947370877,4.19144277052656,tool,0.552503727652038,0,1,1
15,1,tool,0,0,animals,2,t_250.jpg,250,tbd,111.842267221953,118.680887476738,6.79256495418991,tool,0.456910641260947,0,1,1
16,1,animal,0,0,animals,2,a_166.jpg,166,tbd,121.216491647688,128.772352078478,7.51853533077278,animal,0.644770484467699,0,2,1
17,1,animal,0,0,animals,2,a_084.jpg,84,tbd,131.324736717769,137.312604001998,5.93944296309667,animal,0.937836445605171,0,2,1
18,1,animal,0,0,animals,2,a_139.jpg,139,tbd,139.848296695459,144.251712381456,4.36763578404686,animal,0.670968657503181,0,2,1
19,1,tool,0,0,animals,2,t_249.jpg,249,tbd,146.803910995181,150.907100660113,4.05003430084099,tool,0.623799309128117,0,1,1
20,1,animal,0,0,animals,2,a_005.jpg,5,tbd,153.45930889585,158.062829397632,4.5627962007227,animal,0.776314294610529,0,2,1
21,1,animal,0,0,animals,2,a_169.jpg,169,tbd,160.615094082505,167.337092022754,6.68958261134388,animal,0.793387592853833,0,2,1
22,1,animal,0,0,animals,2,a_029.jpg,29,tbd,169.889288712076,174.059024854053,4.12554300101998,animal,0.708650701963052,0,2,1
23,1,tool,0,0,animals,2,t_204.jpg,204,tbd,176.611377740704,181.915372383169,5.26936129127588,tool,0.648600045276908,0,1,1
24,1,animal,0,0,animals,2,a_163.jpg,163,tbd,184.467755739525,192.17369422087,7.66453710501597,animal,0.824635077098719,0,2,1
25,1,animal,0,0,animals,2,a_037.jpg,37,tbd,194.709359651964,202.415304868717,7.66419784646495,animal,0.7613735549794,0,2,1
26,1,animal,0,0,animals,2,a_068.jpg,68,tbd,204.967644605285,211.022293464387,6.02232109764741,animal,0.419707131536597,0,2,1
27,1,tool,0,0,animals,2,t_331.jpg,331,tbd,213.557916879361,219.512659104054,5.91154789094718,tool,1.05863118531488,0,1,1
28,1,animal,0,0,animals,2,a_109.jpg,109,tbd,222.064873433732,228.97032593932,6.86868669519782,animal,0.844260453679453,0,2,1
29,1,tool,0,0,animals,2,t_262.jpg,262,tbd,231.522530646986,235.675587993215,4.12297273314761,tool,1.06226157047513,0,1,1
30,1,tool,0,0,animals,2,t_270.jpg,270,tbd,238.211269460995,245.36675925188,7.11100483395627,tool,0.715415938659135,0,1,1
31,1,tool,0,0,animals,2,t_228.jpg,228,tbd,247.919090970106,255.24156917705,7.29036050319412,tool,0.800932533262312,0,1,1
32,1,animal,0,0,animals,2,a_072.jpg,72,tbd,257.79379312874,262.180532584858,4.34697389820599,animal,1.10922885659602,0,2,1
33,1,animal,0,0,animals,2,a_009.jpg,9,tbd,264.732713878961,268.952521047425,4.16578961822256,animal,0.63845652013697,0,2,1
34,1,animal,0,0,animals,2,a_151.jpg,151,tbd,271.504920761202,278.460234854146,6.90241894220417,animal,0.675087520143279,0,2,1
35,1,tool,0,0,animals,2,t_192.jpg,192,tbd,281.012573628514,287.73439805181,6.69120097987271,tool,0.703192134507844,0,1,1
36,1,tool,0,0,animals,2,t_281.jpg,281,tbd,290.286748051858,298.326320821692,7.98829985464731,tool,0.914675300316048,0,1,1
37,1,tool,0,0,animals,2,t_252.jpg,252,tbd,300.878662161929,308.167811964149,7.25051912937804,tool,0.796705583354196,0,1,1
38,1,animal,0,0,animals,2,a_132.jpg,132,tbd,310.720013464477,318.726312354322,7.97159540000537,animal,0.711395862011159,0,2,1
39,1,animal,0,0,animals,2,a_127.jpg,127,tbd,321.278560361042,327.266591540209,5.9532882333485,animal,0.763407969067885,0,2,1
40,1,tool,0,0,animals,2,t_308.jpg,308,tbd,329.818768985508,336.507241590517,6.65498357420431,tool,0.856112848165139,0,1,1
41,1,tool,0,0,animals,2,t_295.jpg,295,tbd,339.059581968552,344.663845931134,5.56200863905574,tool,0.876758158028679,0,1,1
42,1,animal,0,0,animals,2,a_105.jpg,105,tbd,347.199518739104,354.68878201692,7.44739595585353,animal,0.669158436296129,0,2,1
43,1,tool,0,0,animals,2,t_214.jpg,214,tbd,357.240974857436,361.744513352381,4.46110511520524,tool,0.783740884271538,0,1,1
44,1,animal,0,0,animals,2,a_172.jpg,172,tbd,364.31336734829,368.73333353654,4.3692030749368,animal,0.729114476530413,0,2,1
45,1,tool,0,0,animals,2,t_266.jpg,266,tbd,371.285680649984,378.958434736051,7.64294794242929,tool,0.830381342715555,0,1,1
46,1,tool,0,0,animals,2,t_294.jpg,294,tbd,381.510660932878,389.516986764356,7.96624867839848,tool,0.893168178904489,0,1,1
47,1,tool,0,0,animals,2,t_348.jpg,348,tbd,392.069171265796,398.040571759278,5.94225117322267,tool,0.845879838313522,0,1,1
48,1,animal,0,0,animals,2,a_118.jpg,118,tbd,400.5927684486,408.415619829246,7.78258829093337,animal,0.939171660148531,0,2,1
49,1,animal,0,0,animals,2,a_102.jpg,102,tbd,410.951143496028,415.971585139968,4.97748417355834,animal,0.801493496567673,0,2,1
50,1,tool,0,0,animals,2,t_258.jpg,258,tbd,418.523981646408,424.445103598676,5.86418478554042,tool,0.801264813413582,0,1,1
51,1,tool,0,0,animals,2,t_193.jpg,193,tbd,426.997470918345,432.635265347906,5.60454892993354,tool,0.784389728619317,0,1,1
52,1,tool,0,0,animals,2,t_212.jpg,212,tbd,435.187461395761,441.475564323066,6.24650919000294,tool,0.83739354438876,0,1,1
53,1,animal,0,0,animals,2,a_024.jpg,24,tbd,444.011265997071,448.131129005277,4.0819760733885,animal,0.845084418648185,0,2,1
54,1,animal,0,0,animals,2,a_077.jpg,77,tbd,450.683304526174,457.138421207503,6.41906251315083,animal,0.783080172775044,0,2,1
55,1,animal,0,0,animals,2,a_031.jpg,31,tbd,459.69061661389,465.111495289619,5.38607367279804,animal,0.752260868068333,0,2,1
56,1,tool,0,0,animals,2,t_330.jpg,330,tbd,467.647072518935,474.752534261655,7.07228288303405,tool,0.824544309451085,0,1,1
57,1,animal,0,0,animals,2,a_044.jpg,44,tbd,477.304873036021,484.627175801613,7.28486548544656,animal,0.801257115804219,0,2,1
58,1,animal,0,0,animals,2,a_129.jpg,129,tbd,487.179515538181,492.867197213797,5.64604773817739,animal,0.652522298136319,0,2,1
59,1,tool,0,0,animals,2,t_314.jpg,314,tbd,495.402875474239,499.706234101704,4.27457252307163,tool,0.776727720396593,0,1,1
60,1,tool,0,0,animals,2,t_251.jpg,251,tbd,502.258416999476,507.112205714845,4.83132346895381,tool,0.66803618895392,0,1,1
