trial,phase,object,toShock,seenBefore,shockedCategory,responseSide,filename,num,name,onsetFixationCross,onsetStimulus,interTrialTime,response,reactionTime,wasShocked,buttonPressed,isResponseCorrect
1,2,tool,0,0,animals,2,t_314.jpg,314,tbd,0.0257443773973591,9.81661641796609,9.69855280823067,0,3.7360655242951,0,2,1
2,2,animal,0,0,animals,2,a_080.jpg,80,tbd,14.3869613745085,20.6586916673909,6.2253248114087,1,1.71122228992158,0,1,0
3,2,tool,0,0,animals,2,t_332.jpg,332,tbd,25.1959098524924,34.8534027378619,9.6141301912315,0,3.20196837916001,0,2,1
4,2,tool,0,0,animals,2,t_207.jpg,207,tbd,39.4073015361123,46.8131762499795,7.36744202252841,1,1.5694922440025,0,1,0
5,2,animal,1,0,animals,2,a_115.jpg,115,tbd,51.3503100826495,57.6884244562075,6.27933197589985,0,2.79956783083708,1,2,0
6,2,tool,0,0,animals,2,t_260.jpg,260,tbd,62.4425278171227,70.4653514041152,7.96659793089204,0,2.54899781046106,0,2,1
7,2,animal,1,0,animals,2,a_128.jpg,128,tbd,75.019293821874,83.8427682375891,8.78267090360032,0,2.71495272007724,1,2,0
8,2,tool,0,0,animals,2,t_330.jpg,330,tbd,88.596872881431,95.0518978006787,6.41337644334108,1,0.986083244720476,0,1,0
9,2,animal,1,0,animals,2,a_047.jpg,47,tbd,99.5890120687161,109.563646041706,9.91823280166831,0,1.49077474735168,1,2,0
10,2,animal,0,0,animals,2,a_093.jpg,93,tbd,114.317529701421,120.939373260696,6.59479599042176,1,2.86937636364701,0,1,0
11,2,tool,0,0,animals,2,t_243.jpg,243,tbd,125.476505168976,133.699649102769,8.18391599394822,0,3.03348321733006,0,2,1
12,2,animal,1,0,animals,2,a_005.jpg,5,tbd,138.270093486132,144.825259174514,6.52277433553361,1,1.08909231725761,1,1,1
13,2,tool,0,0,animals,2,t_204.jpg,204,tbd,149.579199924468,158.652867180105,9.02219900083186,1,1.84489331094824,0,1,0
14,2,animal,0,0,animals,2,a_070.jpg,70,tbd,163.206778807622,171.263140985531,8.00690559236927,0,1.52998130849551,0,2,1
15,2,tool,0,0,animals,2,t_320.jpg,320,tbd,175.816956072814,182.138573933206,6.28973389833934,0,1.61486358874367,0,2,1
16,2,tool,0,0,animals,2,t_322.jpg,322,tbd,186.692348608297,193.581100580396,6.84598215309552,1,2.30269897385119,0,1,0
17,2,tool,0,0,animals,2,t_218.jpg,218,tbd,198.118201056971,205.991054680485,7.83316350947137,1,1.85108728112891,0,1,0
18,2,animal,0,0,animals,2,a_057.jpg,57,tbd,210.544863353134,217.90051212757,7.31220498558451,0,3.13912934573,0,2,1
19,2,tool,0,0,animals,2,t_316.jpg,316,tbd,222.45439168192,231.394622371387,8.9013060582659,1,1.55523475868631,0,1,0
20,2,animal,0,0,animals,2,a_050.jpg,50,tbd,235.948592051339,243.938053129106,7.94985246524846,1,1.36313187822725,0,1,0
21,2,animal,0,0,animals,2,a_009.jpg,9,tbd,248.492007734669,255.83112182887,7.30233803406163,0,2.17843084345031,0,2,1
22,2,tool,0,0,animals,2,t_315.jpg,315,tbd,260.384892334449,267.040099044412,6.63061551942062,0,1.62674188646633,0,2,1
23,2,animal,1,0,animals,2,a_171.jpg,171,tbd,271.593867625601,281.167953596444,9.53402132569729,0,1.0322753418277,1,2,0
24,2,animal,1,0,animals,2,a_044.jpg,44,tbd,285.922119179305,293.010809827507,7.04845395711793,0,1.28474730105881,1,2,0
25,2,tool,0,0,animals,2,t_324.jpg,324,tbd,297.764906132325,306.538428513463,8.73138020439135,0,3.08357958116267,0,2,1
26,2,tool,0,0,animals,2,t_186.jpg,186,tbd,311.108933515113,318.481385742932,7.34190531323167,1,1.74786331836685,0,1,0
27,2,animal,1,0,animals,2,a_121.jpg,121,tbd,323.035222639968,330.67456018793,7.60262616633904,0,3.0221267500483,1,2,0
28,2,tool,0,0,animals,2,t_308.jpg,308,tbd,335.411824494246,344.10201308768,8.66365296465588,1,0.674002340796051,0,1,0
29,2,tool,0,0,animals,2,t_202.jpg,202,tbd,348.655808610331,357.946468807625,9.24294862320971,0,1.38293256914722,0,2,1
30,2,tool,0,0,animals,2,t_187.jpg,187,tbd,362.5002595193,370.589880289371,8.04806700794507,0,1.0558539311919,0,2,1
31,2,animal,0,0,animals,2,a_169.jpg,169,tbd,375.127065439109,382.6830047323,7.51969189320979,0,1.65210598908698,0,2,1
32,2,animal,1,0,animals,2,a_018.jpg,18,tbd,387.220078588146,394.509032813641,7.25676454772745,0,0.894347890692188,1,2,0
33,2,tool,0,0,animals,2,t_213.jpg,213,tbd,399.263130080654,405.634623641485,6.3381065083863,1,0.668102160833769,0,1,0
34,2,tool,0,0,animals,2,t_268.jpg,268,tbd,410.171890577801,417.777712948259,7.55246518595811,0,1.9543747487628,0,2,1
35,2,tool,0,0,animals,2,t_231.jpg,231,tbd,422.314991110184,431.405367524089,9.04299868393847,0,0.870081011144975,0,2,1
36,2,animal,1,0,animals,2,a_160.jpg,160,tbd,435.942597255531,444.365908867846,8.3908065762419,1,1.1999112061726,1,1,1
37,2,animal,0,0,animals,2,a_143.jpg,143,tbd,449.119810488535,456.342025583387,7.17058275809478,0,1.13213098049891,0,2,1
38,2,tool,0,0,animals,2,t_266.jpg,266,tbd,460.895996546265,467.167559417211,6.22875524819827,0,1.00590125515146,0,2,1
39,2,animal,1,0,animals,2,a_163.jpg,163,tbd,471.72136231669,479.610723037515,7.85764407549499,1,1.65711678010393,1,1,1
40,2,animal,1,0,animals,2,a_147.jpg,147,tbd,484.34815123772,494.272492559089,9.87256535815932,1,1.27276316188181,1,1,1
41,2,animal,1,0,animals,2,a_012.jpg,12,tbd,499.009935512951,508.116957259521,9.05156812988947,0,1.14868779122071,1,2,0
42,2,tool,0,0,animals,2,t_212.jpg,212,tbd,512.871066714338,522.778721649388,9.86262749095049,0,1.56234121049238,0,2,1
43,2,animal,0,0,animals,2,a_113.jpg,113,tbd,527.332709290314,534.054624982143,6.68343939808643,1,1.74574873440906,0,1,0
44,2,animal,1,0,animals,2,a_063.jpg,63,tbd,538.608371753578,548.316084484477,9.65349694759089,1,0.843645985449712,1,1,1
45,2,animal,1,0,animals,2,a_094.jpg,94,tbd,553.070026838089,559.241537782577,6.12655429886993,1,0.868552083232316,1,1,1
46,2,tool,0,0,animals,2,t_298.jpg,298,tbd,563.978823257184,570.834035034708,6.8100901883302,0,0.910333799025011,0,2,1
47,2,tool,0,0,animals,2,t_210.jpg,210,tbd,575.371309347853,581.959615278407,6.54546021930068,0,1.01401801174552,0,2,1
48,2,animal,1,0,animals,2,a_161.jpg,161,tbd,586.513574694944,595.037100844679,8.47280741338006,1,0.883971900152119,1,1,1
49,2,tool,0,0,animals,2,t_349.jpg,349,tbd,599.774114659554,606.81305789999,7.00274381813325,0,0.795376829990346,0,2,1
50,2,animal,1,0,animals,2,a_056.jpg,56,tbd,611.36685342264,620.523928554998,9.10872203874901,1,0.794870394669942,1,1,1
51,2,tool,0,0,animals,2,t_200.jpg,200,tbd,625.278038651279,632.166744438015,6.83538366359403,0,1.00532906983653,0,2,1
52,2,tool,0,0,animals,2,t_211.jpg,211,tbd,636.720564977737,643.075541819306,6.3163890969916,0,1.05786107003769,0,2,1
53,2,tool,0,0,animals,2,t_345.jpg,345,tbd,647.612626580029,653.900744978769,6.24148411872324,0,0.798919952846063,0,2,1
54,2,animal,1,0,animals,2,a_020.jpg,20,tbd,658.454674246529,668.495789481893,9.99538570041143,1,0.78236667017336,1,1,1
55,2,animal,1,0,animals,2,a_102.jpg,102,tbd,673.266584360835,680.822372268673,7.50450527505803,0,1.07710689515397,1,2,0
56,2,animal,1,0,animals,2,a_036.jpg,36,tbd,685.559803996926,695.100496668304,9.50589812640314,1,1.52138858608942,1,1,1
57,2,tool,0,0,animals,2,t_240.jpg,240,tbd,699.837922623386,705.959392049158,6.08905804720152,0,1.05873955410607,0,2,1
58,2,tool,0,0,animals,2,t_321.jpg,321,tbd,710.513160309615,720.204186012731,9.66399698969174,0,0.613340754733144,0,2,1
59,2,animal,1,0,animals,2,a_126.jpg,126,tbd,724.757942726848,733.498190799972,8.69842003003386,1,0.889792859390127,1,1,1
60,2,animal,0,0,animals,2,a_086.jpg,86,tbd,738.252141171877,745.824592052622,7.524475503594,1,0.907731061451614,0,1,0
