trial,phase,object,toShock,seenBefore,shockedCategory,responseSide,filename,num,name,onsetFixationCross,onsetStimulus,interTrialTime,response,reactionTime,wasShocked,buttonPressed,isResponseCorrect
1,1,animal,0,0,animals,1,a_037.jpg,37,tbd,0.0264678139205898,5.69755632969623,5.51063752072973,animal,1.31900956777622,0,1,1
2,1,tool,0,0,animals,1,t_194.jpg,194,tbd,8.29986830675989,14.8883749416184,6.53436613152246,tool,1.09950100242122,0,2,1
3,1,animal,0,0,animals,1,a_074.jpg,74,tbd,17.4407172440569,22.7780563279323,5.28518187713223,animal,0.670093054446852,0,1,1
4,1,tool,0,0,animals,1,t_234.jpg,234,tbd,25.3304246098032,30.3009876674992,4.94751527452812,tool,0.799400067514625,0,2,1
5,1,tool,0,0,animals,1,t_207.jpg,207,tbd,32.8531833946201,38.7744823919104,5.88298486582799,tool,0.767231756713272,0,2,1
6,1,animal,0,0,animals,1,a_125.jpg,125,tbd,41.3266444419889,46.8642445389789,5.48307589784699,animal,0.626748776609247,0,1,1
7,1,animal,0,0,animals,1,a_166.jpg,166,tbd,49.4166147452524,55.0043217909067,5.54221985823871,animal,0.526915910959133,0,1,1
8,1,animal,0,0,animals,1,a_015.jpg,15,tbd,57.5564899349263,64.445118673118,6.85904061425697,animal,0.69162358942117,0,1,1
9,1,tool,0,0,animals,1,t_305.jpg,305,tbd,66.9808123287803,74.8203550137898,7.7977311001956,tool,0.938579264981172,0,2,1
10,1,tool,0,0,animals,1,t_348.jpg,348,tbd,77.3558456449971,82.6265195803455,5.21674290660485,tool,0.678688077108291,0,2,1
11,1,animal,0,0,animals,1,a_087.jpg,87,tbd,85.1788731084648,90.5329095906443,5.31263578665245,animal,0.726587094732849,0,1,1
12,1,animal,0,0,animals,1,a_082.jpg,82,tbd,93.0853044934154,97.2552029266633,4.12793297544526,animal,0.515525373053379,0,1,1
13,1,tool,0,0,animals,1,t_200.jpg,200,tbd,99.8074053891928,107.096509967955,7.25050610108772,tool,0.74553219506015,0,2,1
14,1,tool,0,0,animals,1,t_189.jpg,189,tbd,109.64871884516,114.152208267842,4.47676246056771,tool,0.670061622540743,0,2,1
15,1,animal,0,0,animals,1,a_088.jpg,88,tbd,116.704418748715,124.143738331338,7.38844277070279,animal,0.688902805137332,0,1,1
16,1,tool,0,0,animals,1,t_277.jpg,277,tbd,126.679168985336,130.999161505826,4.27477163908267,tool,0.634707463538234,0,2,1
17,1,animal,0,0,animals,1,a_156.jpg,156,tbd,133.551399890534,138.838816447643,5.26218075236355,animal,0.601312666929971,0,1,1
18,1,animal,0,0,animals,1,a_096.jpg,96,tbd,141.391046493274,148.296529468567,6.87650015167494,animal,0.80794441424564,0,1,1
19,1,tool,0,0,animals,1,t_181.jpg,181,tbd,150.832060191491,154.918426089027,4.04087901701761,tool,0.660280847256672,0,2,1
20,1,animal,0,0,animals,1,a_124.jpg,124,tbd,157.470717074068,164.342801403948,6.81503600506797,animal,0.585233964002782,0,1,1
21,1,tool,0,0,animals,1,t_314.jpg,314,tbd,166.894975641909,172.882930486447,5.95083222282869,tool,0.79839585018658,0,2,1
22,1,tool,0,0,animals,1,t_354.jpg,354,tbd,175.435261563205,182.407307372963,6.91823578223581,tool,1.00535667031545,0,2,1
23,1,tool,0,0,animals,1,t_221.jpg,221,tbd,184.95966154255,189.546428517623,4.54392583068734,tool,0.590472187381692,0,2,1
24,1,animal,0,0,animals,1,a_060.jpg,60,tbd,192.082121211084,198.837454932933,6.72296708576168,animal,0.662771986185362,0,1,1
25,1,animal,0,0,animals,1,a_033.jpg,33,tbd,201.389643283178,206.543534216388,5.11464091312217,animal,0.558944381851688,0,1,1
26,1,animal,0,0,animals,1,a_115.jpg,115,tbd,209.095883895702,215.884527098986,6.75069257332744,animal,0.777262062844102,0,1,1
27,1,tool,0,0,animals,1,t_267.jpg,267,tbd,218.42009727216,224.825009181035,6.35100339510627,tool,0.92115797063434,0,2,1
28,1,tool,0,0,animals,1,t_278.jpg,278,tbd,227.360684234141,233.348738506138,5.94228976089761,tool,0.616649191991428,0,2,1
29,1,animal,0,0,animals,1,a_078.jpg,78,tbd,235.900924611247,242.489404945939,6.56390331867872,animal,0.560310066100101,0,1,1
30,1,animal,0,0,animals,1,a_104.jpg,104,tbd,245.041635312303,251.546796399218,6.4745326060907,animal,0.717262082088155,0,1,1
31,1,tool,0,0,animals,1,t_203.jpg,203,tbd,254.098977051854,259.136104547684,4.99317390049658,tool,0.625197708261339,0,2,1
32,1,tool,0,0,animals,1,t_192.jpg,192,tbd,261.688461924608,266.108605799347,4.37110674341723,tool,0.616936248685533,0,2,1
33,1,animal,0,0,animals,1,a_095.jpg,95,tbd,268.660807941143,274.63203299327,5.93328788831577,animal,0.623805723846317,0,1,1
34,1,tool,0,0,animals,1,t_283.jpg,283,tbd,277.18437625791,281.737874805467,4.51724596912143,tool,0.695240183030137,0,2,1
35,1,tool,0,0,animals,1,t_300.jpg,300,tbd,284.290110945039,290.912004678896,6.56884343221921,tool,0.82641547011076,0,2,1
36,1,animal,0,0,animals,1,a_085.jpg,85,tbd,293.464220612242,297.784263808662,4.27059286025619,animal,0.579433494384602,0,1,1
37,1,tool,0,0,animals,1,t_238.jpg,238,tbd,300.336370371804,305.557215113904,5.18508680993759,tool,1.01870432547935,0,2,1
38,1,animal,0,0,animals,1,a_116.jpg,116,tbd,308.109429764315,312.99657959925,4.84673991730628,animal,0.718743871949073,0,1,1
39,1,animal,0,0,animals,1,a_108.jpg,108,tbd,315.548787193519,322.921207491987,7.32547202758427,animal,0.885316617086801,0,1,1
40,1,animal,0,0,animals,1,a_071.jpg,71,tbd,325.456715442816,332.61232358445,7.12798851958065,animal,0.690552338742236,0,1,1
41,1,tool,0,0,animals,1,t_184.jpg,184,tbd,335.147942829885,339.567926337756,4.38236786578609,tool,0.729169322042708,0,2,1
42,1,tool,0,0,animals,1,t_190.jpg,190,tbd,342.120276337805,346.440134791592,4.26585255354679,tool,0.730362130807407,0,2,1
43,1,tool,0,0,animals,1,t_276.jpg,276,tbd,348.992502431996,354.363384491465,5.3296058131142,tool,0.658221736670384,0,2,1
44,1,animal,0,0,animals,1,a_017.jpg,17,tbd,356.898993697967,364.104602400853,7.16930851441628,animal,0.949342126964893,0,1,1
45,1,tool,0,0,animals,1,t_345.jpg,345,tbd,366.656815126862,374.329699430826,7.6280735347343,tool,0.972591153297799,0,2,1
46,1,animal,0,0,animals,1,a_045.jpg,45,tbd,376.865105388327,384.621115216891,7.71083002916036,animal,0.672608248405595,0,1,1
47,1,tool,0,0,animals,1,t_251.jpg,251,tbd,387.173450142454,392.460918337695,5.24323636608899,tool,0.616074437136376,0,2,1
48,1,animal,0,0,animals,1,a_142.jpg,142,tbd,395.01311181968,402.352264652833,7.29197330081982,animal,0.755988114858155,0,1,1
49,1,animal,0,0,animals,1,a_007.jpg,7,tbd,404.887789281817,412.110189582537,7.18807889716649,animal,0.711412540207675,0,1,1
50,1,tool,0,0,animals,1,t_357.jpg,357,tbd,414.662382743788,421.551150359687,6.85202233999169,tool,0.913866409876391,0,2,1
51,1,tool,0,0,animals,1,t_333.jpg,333,tbd,424.103334540394,431.909407697834,7.75637266557205,tool,0.943884200976754,0,2,1
52,1,tool,0,0,animals,1,t_292.jpg,292,tbd,434.461734925787,442.167830566663,7.67407596714038,tool,0.801803646133067,0,2,1
53,1,animal,0,0,animals,1,a_012.jpg,12,tbd,444.720045858542,451.592127301818,6.82960872132484,animal,0.692826020197572,0,1,1
54,1,animal,0,0,animals,1,a_019.jpg,19,tbd,454.144343555898,461.633580854281,7.45070699487218,animal,1.02270195076653,0,1,1
55,1,tool,0,0,animals,1,t_307.jpg,307,tbd,464.169153914058,468.405754700946,4.18179297070538,tool,0.760787574486585,0,2,1
56,1,tool,0,0,animals,1,t_229.jpg,229,tbd,470.941282537267,478.647400308771,7.67231972055819,tool,0.6034891660629,0,2,1
57,1,tool,0,0,animals,1,t_339.jpg,339,tbd,481.182861753208,485.486255661384,4.26702281142974,tool,0.567859817515,0,2,1
58,1,animal,0,0,animals,1,a_039.jpg,39,tbd,488.038428295676,495.027293382557,6.94281408161037,animal,0.760191971938184,0,1,1
59,1,animal,0,0,animals,1,a_004.jpg,4,tbd,497.579473714459,501.782773038256,4.16282756995911,animal,0.604939524018391,0,1,1
60,1,animal,0,0,animals,1,a_038.jpg,38,tbd,504.334984160597,511.340562682469,6.97281964078985,animal,0.631512634792216,0,1,1
