trial,phase,object,toShock,seenBefore,shockedCategory,responseSide,filename,num,name,onsetFixationCross,onsetStimulus,interTrialTime,response,reactionTime,wasShocked,buttonPressed,isResponseCorrect
1,1,animal,0,0,animals,2,a_130.jpg,130,tbd,0.0183976095568141,6.24004104640699,6.17358026686016,tool,1.2496780917636,0,1,0
2,1,animal,0,0,animals,2,a_116.jpg,116,tbd,8.79207945001508,14.5634962550257,5.74162632880544,animal,1.94259900604084,0,2,1
3,1,animal,0,0,animals,2,a_098.jpg,98,tbd,17.1156821970526,22.1194601427533,4.96388584990175,animal,1.05889295645193,0,2,1
4,1,tool,0,0,animals,2,t_275.jpg,275,tbd,24.6718712412339,31.3603474003085,6.6510526054934,tool,1.09325914423971,0,1,1
5,1,tool,0,0,animals,2,t_255.jpg,255,tbd,33.9127174446221,41.0515786789665,7.09604001006206,tool,1.19154763444658,0,1,1
6,1,tool,0,0,animals,2,t_353.jpg,353,tbd,43.6039891359769,50.8931118340561,7.24639453620474,tool,1.44237320811408,0,1,1
7,1,animal,0,0,animals,2,a_107.jpg,107,tbd,53.4453683379352,61.0679499908265,7.58022761222649,animal,1.20599260774816,0,2,1
8,1,animal,0,0,animals,2,a_035.jpg,35,tbd,63.6202982251125,69.825238388662,6.16748721043605,animal,1.21398598263204,0,2,1
9,1,tool,0,0,animals,2,t_281.jpg,281,tbd,72.3774920059195,79.7165558169263,7.30125404253281,tool,1.58115265485776,0,1,1
10,1,tool,0,0,animals,2,t_288.jpg,288,tbd,82.2688665251362,89.4412532990227,7.12493025800257,tool,1.33167032226265,0,1,1
11,1,animal,0,0,animals,2,a_105.jpg,105,tbd,91.9768042844516,97.9648841425069,5.93910605078352,animal,1.42655516531977,0,2,1
12,1,tool,0,0,animals,2,t_296.jpg,296,tbd,100.517079385868,108.489928788915,7.93213089377021,tool,1.76595189997443,0,1,1
13,1,animal,0,0,animals,2,a_161.jpg,161,tbd,111.042333793418,115.245617357125,4.17079942076231,animal,0.928455845022654,0,2,1
14,1,tool,0,0,animals,2,t_189.jpg,189,tbd,117.781074366996,122.851843414206,5.02355069132269,tool,0.913420397314439,0,1,1
15,1,tool,0,0,animals,2,t_321.jpg,321,tbd,125.38734853443,132.076048567017,6.6527884946626,tool,1.24974320110869,0,1,1
16,1,animal,0,0,animals,2,a_075.jpg,75,tbd,134.628247659207,140.58276477238,5.91011831231037,animal,0.889394407460713,0,2,1
17,1,animal,0,0,animals,2,a_040.jpg,40,tbd,143.135165607319,148.57263209044,5.40073952751497,animal,0.739510128897564,0,2,1
18,1,tool,0,0,animals,2,t_196.jpg,196,tbd,151.091671281775,155.561665495703,4.42001850894665,tool,0.897071536953263,0,1,1
19,1,tool,0,0,animals,2,t_216.jpg,216,tbd,158.097384225898,163.951831803573,5.80666870770331,tool,1.08428560108496,0,1,1
20,1,animal,0,0,animals,2,a_009.jpg,9,tbd,166.504257014425,174.076960418585,7.52131144997853,animal,0.674591300686188,0,2,1
21,1,tool,0,0,animals,2,t_191.jpg,191,tbd,176.629161435189,180.715619589446,4.04306550607422,tool,0.763846911635483,0,1,1
22,1,animal,0,0,animals,2,a_173.jpg,173,tbd,183.251248834382,190.623647667931,7.32297485299996,animal,0.771570227068878,0,2,1
23,1,animal,0,0,animals,2,a_168.jpg,168,tbd,193.175922453744,200.048164768275,6.83141947801317,animal,0.798440501028381,0,2,1
24,1,animal,0,0,animals,2,a_007.jpg,7,tbd,202.600376369156,207.604135070716,4.96799501371663,animal,0.747759130126724,0,2,1
25,1,tool,0,0,animals,2,t_188.jpg,188,tbd,210.156448665547,215.160447598138,4.96454088247977,tool,1.08876852383401,0,1,1
26,1,tool,0,0,animals,2,t_234.jpg,234,tbd,217.696035788907,222.399617957542,4.66507652574521,tool,1.26687722244151,0,1,1
27,1,animal,0,0,animals,2,a_083.jpg,83,tbd,224.951938929295,229.121841605256,4.12227520812932,animal,0.74490586542197,0,2,1
28,1,tool,0,0,animals,2,t_301.jpg,301,tbd,231.657376874636,237.578753651833,5.87972680042559,tool,0.867336451803567,0,1,1
29,1,animal,0,0,animals,2,a_019.jpg,19,tbd,240.131010476446,246.219126192752,6.04490810450842,animal,1.15035298380462,0,2,1
30,1,animal,0,0,animals,2,a_115.jpg,115,tbd,248.754685838044,253.041395641522,4.24437399934612,animal,1.28025318368691,0,2,1
31,1,tool,0,0,animals,2,t_214.jpg,214,tbd,255.593639636709,260.197038408676,4.56222204436103,tool,0.961988120014212,0,1,1
32,1,tool,0,0,animals,2,t_208.jpg,208,tbd,262.73276611947,267.219635841764,4.44736548119243,tool,0.831832293786647,0,1,1
33,1,animal,0,0,animals,2,a_050.jpg,50,tbd,269.771856743981,277.594755476177,7.78226510761119,animal,1.29000996339801,0,2,1
34,1,tool,0,0,animals,2,t_277.jpg,277,tbd,280.13022274959,286.802107251385,6.64385995923043,tool,1.34101303219722,0,1,1
35,1,tool,0,0,animals,2,t_246.jpg,246,tbd,289.354472805398,294.008079542387,4.60685917372881,tool,1.34135140835042,0,1,1
36,1,animal,0,0,animals,2,a_172.jpg,172,tbd,296.560341819508,304.049695960462,7.44950340512912,animal,1.06796304104864,0,2,1
37,1,animal,0,0,animals,2,a_114.jpg,114,tbd,306.585204929515,312.339760017794,5.72205822445983,animal,1.08734926840225,0,2,1
38,1,tool,0,0,animals,2,t_267.jpg,267,tbd,314.89199663606,322.614629542515,7.67815147480666,tool,0.943935511663767,0,1,1
39,1,animal,0,0,animals,2,a_120.jpg,120,tbd,325.150361422873,331.171802283061,5.97152292222107,animal,1.11905495363408,0,2,1
40,1,animal,0,0,animals,2,a_163.jpg,163,tbd,333.723987583616,341.079894508684,7.31390636480941,animal,1.50442914954965,0,2,1
41,1,animal,0,0,animals,2,a_089.jpg,89,tbd,343.632088148367,348.33581111997,4.66304658174852,animal,1.27678314424884,0,2,1
42,1,tool,0,0,animals,2,t_290.jpg,290,tbd,350.888010532896,356.44241307928,5.51097540024663,tool,0.902529816937204,0,1,1
43,1,tool,0,0,animals,2,t_330.jpg,330,tbd,358.977881314901,365.883469877723,6.86493919877947,tool,0.951517703391801,0,1,1
44,1,tool,0,0,animals,2,t_194.jpg,194,tbd,368.418970507648,372.755732398603,4.29858671700958,tool,0.888776029048131,0,1,1
45,1,animal,0,0,animals,2,a_123.jpg,123,tbd,375.291276327845,382.780598715966,7.44453537160706,animal,0.823067870303021,0,2,1
46,1,tool,0,0,animals,2,t_318.jpg,318,tbd,385.299424297332,389.853027891111,4.52894245884008,tool,0.827268545644074,0,1,1
47,1,tool,0,0,animals,2,t_340.jpg,340,tbd,392.4051451957,399.694195407514,7.24655395981986,tool,0.806492249806979,0,1,1
48,1,animal,0,0,animals,2,a_134.jpg,134,tbd,402.229897459452,409.118720846986,6.84182173453198,animal,0.749378845364845,0,2,1
49,1,animal,0,0,animals,2,a_175.jpg,175,tbd,411.670961634815,418.809989330984,7.09202115614433,animal,0.816483487307778,0,2,1
50,1,animal,0,0,animals,2,a_085.jpg,85,tbd,421.362134218842,429.28520704637,7.8802574399282,animal,0.789698849777778,0,2,1
51,1,tool,0,0,animals,2,t_351.jpg,351,tbd,431.837403893411,439.510218849444,7.61534392062454,tool,0.762697074184871,0,1,1
52,1,tool,0,0,animals,2,t_264.jpg,264,tbd,442.045730063647,447.967094011416,5.87069821230979,tool,0.770503780896433,0,1,1
53,1,tool,0,0,animals,2,t_295.jpg,295,tbd,450.502536908916,456.657549430438,6.11138563119762,tool,1.13813551987369,0,1,1
54,1,animal,0,0,animals,2,a_069.jpg,69,tbd,459.17640804758,463.880196769999,4.65673558750642,animal,1.12910456503141,0,2,1
55,1,animal,0,0,animals,2,a_048.jpg,48,tbd,466.432263077613,473.60450616191,7.12972186263286,animal,1.05214050795621,0,2,1
56,1,animal,0,0,animals,2,a_118.jpg,118,tbd,476.156752081511,480.893927785653,4.6924515842253,animal,1.16585863003547,0,2,1
57,1,tool,0,0,animals,2,t_249.jpg,249,tbd,483.446175950404,490.268279258087,6.78900515548579,tool,1.04711906998182,0,1,1
58,1,tool,0,0,animals,2,t_263.jpg,263,tbd,492.803798169946,497.524207736594,4.6818824668829,tool,0.98805014003392,0,1,1
59,1,tool,0,0,animals,2,t_219.jpg,219,tbd,500.043043581501,505.347275175763,5.27158211221661,tool,0.984702621630277,0,1,1
60,1,animal,0,0,animals,2,a_100.jpg,100,tbd,507.899367783703,513.036891229483,5.09668342445098,animal,1.56544141704853,0,2,1
