trial,phase,object,toShock,seenBefore,shockedCategory,responseSide,filename,num,name,onsetFixationCross,onsetStimulus,interTrialTime,response,reactionTime,wasShocked,buttonPressed,isResponseCorrect
1,3,animal,0,0,animals,2,a_146.jpg,146,tbd,0.0313924150177627,4.23480269119864,4.12539047609916,animal,1.48254460235239,0,2,1
2,3,tool,0,0,animals,2,t_284.jpg,284,tbd,6.80353550767359,13.9093430419316,7.07304282636725,tool,1.32301991003624,0,1,1
3,3,tool,0,0,animals,2,t_357.jpg,357,tbd,16.4282595128416,23.9009182235013,7.41952705504745,tool,0.984325979805362,0,1,1
4,3,tool,0,0,animals,2,t_236.jpg,236,tbd,26.4531561390659,33.5588809229848,7.05424873729504,tool,0.635805607184921,0,1,1
5,3,animal,0,0,animals,2,a_062.jpg,62,tbd,36.1276387570042,43.4001365856093,7.22533549641577,animal,0.829052345603486,0,2,1
6,3,tool,0,0,animals,2,t_240.jpg,240,tbd,45.9524351206073,50.4392454221907,4.43915088315654,tool,0.759905456695378,0,1,1
7,3,tool,0,0,animals,2,t_263.jpg,263,tbd,52.9749704755295,60.6477804461119,7.63864680078276,tool,0.680204692183906,0,1,1
8,3,tool,0,0,animals,2,t_304.jpg,304,tbd,63.2000036077388,70.5392732622277,7.29754797629225,tool,0.553097605547919,0,1,1
9,3,animal,0,0,animals,2,a_096.jpg,96,tbd,73.0748170987381,78.0787916809131,4.97101730481296,animal,0.784992601141312,0,2,1
10,3,animal,0,0,animals,2,a_093.jpg,93,tbd,80.6477640884868,88.137073899341,7.44357263399817,animal,0.730860408436456,0,2,1
11,3,tool,0,0,animals,2,t_290.jpg,290,tbd,90.672639866757,94.9091768997787,4.17731133256882,tool,0.936416740890309,0,1,1
12,3,animal,0,0,animals,2,a_178.jpg,178,tbd,97.4615187343725,102.832513521743,5.3243583538552,animal,0.865449344523768,0,2,1
13,3,animal,0,0,animals,2,a_116.jpg,116,tbd,105.384745664027,113.157666545722,7.73128180382868,animal,0.937630733266815,0,2,1
14,3,animal,0,0,animals,2,a_077.jpg,77,tbd,115.709879123005,121.164247122101,5.39739967188019,animal,0.729620115564103,0,2,1
15,3,tool,0,0,animals,2,t_268.jpg,268,tbd,123.716457133481,129.087395471007,5.32583371363204,tool,0.847792410751936,0,1,1
16,3,tool,0,0,animals,2,t_334.jpg,334,tbd,131.639651668623,135.859632219086,4.17766030309004,tool,0.585868022750219,0,1,1
17,3,animal,0,0,animals,2,a_037.jpg,37,tbd,138.395215185602,145.951296501602,7.51187899496163,animal,1.02368595404369,0,2,1
18,3,tool,0,0,animals,2,t_247.jpg,247,tbd,148.503547567413,153.70766923992,5.16456563318472,tool,0.850682578599844,0,1,1
19,3,tool,0,0,animals,2,t_191.jpg,191,tbd,156.259898816302,164.03283637636,7.71656792832198,tool,0.534020445026727,0,1,1
20,3,tool,0,0,animals,2,t_210.jpg,210,tbd,166.585060179463,173.106936097575,6.4762992009924,tool,0.632279095643753,0,1,1
21,3,animal,0,0,animals,2,a_125.jpg,125,tbd,175.659057585336,183.648962364713,7.95611187699081,animal,0.84579934638441,0,2,1
22,3,tool,0,0,animals,2,t_196.jpg,196,tbd,186.201191620358,193.340257734671,7.08367576513618,tool,0.690521863329195,0,1,1
23,3,tool,0,0,animals,2,t_190.jpg,190,tbd,195.859152074677,203.865403574126,7.94194531672676,tool,1.00886241753778,0,1,1
24,3,tool,0,0,animals,2,t_214.jpg,214,tbd,206.384462131858,211.371727560306,4.92863556138532,tool,0.743273280027097,0,1,1
25,3,animal,0,0,animals,2,a_168.jpg,168,tbd,213.907314375675,218.310805990949,4.35703147105145,animal,0.698630434339066,0,2,1
26,3,animal,0,0,animals,2,a_111.jpg,111,tbd,220.863036850282,227.801934064098,6.89381509302553,animal,0.472072514875435,0,2,1
27,3,animal,0,0,animals,2,a_113.jpg,113,tbd,230.354105266209,234.891098195867,4.48318370020151,animal,1.19510616796288,0,2,1
28,3,tool,0,0,animals,2,t_215.jpg,215,tbd,237.426639145738,242.780917081675,5.31324001616168,tool,1.08964791711242,0,1,1
29,3,tool,0,0,animals,2,t_222.jpg,222,tbd,245.333165260847,251.238020332288,5.85508749656737,tool,0.52968599509768,0,1,1
30,3,animal,0,0,animals,2,a_167.jpg,167,tbd,253.790109104799,258.627286266219,4.7966768010298,animal,0.6396387440127,0,2,1
31,3,animal,0,0,animals,2,a_166.jpg,166,tbd,261.146165852288,267.501259424318,6.32038679722622,animal,0.968457479716562,0,2,1
32,3,tool,0,0,animals,2,t_311.jpg,311,tbd,270.070022069403,277.192539078126,7.08488788964071,tool,0.619625350004753,0,1,1
33,3,tool,0,0,animals,2,t_185.jpg,185,tbd,279.728091253819,285.949745413852,6.16431543537921,tool,0.744494970110281,0,1,1
34,3,animal,0,0,animals,2,a_053.jpg,53,tbd,288.485272572,293.555838725443,5.02499939711526,animal,0.676978391175908,0,2,1
35,3,animal,0,0,animals,2,a_139.jpg,139,tbd,296.091563137306,300.661950639825,4.524882924873,animal,0.956338724639863,0,2,1
36,3,tool,0,0,animals,2,t_288.jpg,288,tbd,303.214009904463,309.218873892413,5.96144953703,tool,0.746824167636987,0,1,1
37,3,animal,0,0,animals,2,a_067.jpg,67,tbd,311.771111166501,319.577229367343,7.75001527733581,animal,0.869938390046627,0,2,1
38,3,animal,0,0,animals,2,a_130.jpg,130,tbd,322.112967250191,329.118580802259,6.95492623627103,animal,0.613029057476524,0,2,1
39,3,animal,0,0,animals,2,a_072.jpg,72,tbd,331.670788247737,338.109300576254,6.3925004884311,animal,0.80640601542018,0,2,1
40,3,tool,0,0,animals,2,t_354.jpg,354,tbd,340.628172143879,347.566916365789,6.88413309684166,tool,0.716549090115223,0,1,1
41,3,animal,0,0,animals,2,a_137.jpg,137,tbd,350.11931978203,355.490273514969,5.32982734177943,animal,0.864610936050667,0,2,1
42,3,animal,0,0,animals,2,a_028.jpg,28,tbd,358.042501166925,364.697845042694,6.59774247236203,animal,0.6174491443835,0,2,1
43,3,animal,0,0,animals,2,a_035.jpg,35,tbd,367.25007975088,374.82297670554,7.52422441948677,animal,0.677777028168748,0,2,1
44,3,tool,0,0,animals,2,t_289.jpg,289,tbd,377.375050724114,383.963630150969,6.55116305953113,tool,1.07857605004665,0,1,1
45,3,animal,0,0,animals,2,a_110.jpg,110,tbd,386.515928365229,392.537381871727,5.98783710509605,animal,0.752207430001363,0,2,1
46,3,tool,0,0,animals,2,t_180.jpg,180,tbd,395.089587072041,399.226232578569,4.09727634424605,tool,0.663677396760249,0,1,1
47,3,animal,0,0,animals,2,a_152.jpg,152,tbd,401.77847081487,408.550560344323,6.74005192518189,animal,0.650797851745665,0,2,1
48,3,tool,0,0,animals,2,t_359.jpg,359,tbd,411.102794090295,417.257720365516,6.11865713152457,tool,0.72602689057203,0,1,1
49,3,animal,0,0,animals,2,a_003.jpg,3,tbd,419.809862380494,426.79887999926,6.94308469380947,animal,0.795360769587205,0,2,1
50,3,animal,0,0,animals,2,a_129.jpg,129,tbd,429.35113972499,435.622888951691,6.2123848510887,animal,0.633666927880768,0,2,1
51,3,animal,0,0,animals,2,a_043.jpg,43,tbd,438.175049890197,445.781180728104,7.56283552963088,animal,0.565907871208765,0,2,1
52,3,tool,0,0,animals,2,t_323.jpg,323,tbd,448.333413511864,454.037799151537,5.64440883050565,tool,0.695766887723948,0,1,1
53,3,tool,0,0,animals,2,t_269.jpg,269,tbd,456.573472886837,461.160592956937,4.5406611650803,tool,1.40528882169565,0,1,1
54,3,tool,0,0,animals,2,t_317.jpg,317,tbd,463.679372472828,469.550864082969,5.81535668544646,tool,0.619337968983018,0,1,1
55,3,animal,0,0,animals,2,a_059.jpg,59,tbd,472.086240173639,477.740785733153,5.62097338818963,animal,0.891441931633381,0,2,1
56,3,animal,0,0,animals,2,a_064.jpg,64,tbd,480.259639339463,485.480628649114,5.18590124282413,animal,0.478971865606582,0,2,1
57,3,tool,0,0,animals,2,t_201.jpg,201,tbd,488.015993474992,495.105045990025,7.03264950806951,tool,0.753384537537386,0,1,1
58,3,tool,0,0,animals,2,t_271.jpg,271,tbd,497.640612919654,501.710420849061,4.03246950516168,tool,1.25731100904977,0,1,1
59,3,tool,0,0,animals,2,t_189.jpg,189,tbd,504.24597206254,509.817167824183,5.52520228637112,tool,0.719613418560584,0,1,1
60,3,animal,0,0,animals,2,a_150.jpg,150,tbd,512.352707170366,518.924655382766,6.53711483836326,animal,0.66288196714504,0,2,1
