trial,phase,object,toShock,seenBefore,shockedCategory,responseSide,filename,num,name,onsetFixationCross,onsetStimulus,interTrialTime,response,reactionTime,wasShocked,buttonPressed,isResponseCorrect
1,2,tool,1,0,tools,1,t_203.jpg,203,tbd,0.0254189180504909,7.5144513027526,7.37823170991975,1,1.40618242659002,1,1,1
2,2,tool,0,0,tools,1,t_210.jpg,210,tbd,12.3016823563494,22.0928696478932,9.740880243337,1,1.44223534876983,0,1,0
3,2,animal,0,0,tools,1,a_133.jpg,133,tbd,26.6468055032765,34.7866247575666,8.10239758312031,0,1.37284771410577,0,2,1
4,2,animal,0,0,tools,1,a_116.jpg,116,tbd,39.3237510117515,47.7137356839357,8.3443188963258,1,1.71813539691175,0,1,0
5,2,animal,0,0,tools,1,a_038.jpg,38,tbd,52.2675535096823,59.8900248129248,7.56516147502251,1,1.21122665402709,0,1,0
6,2,tool,1,0,tools,1,t_296.jpg,296,tbd,64.4440161550665,71.9499598132343,7.45739876192502,1,1.36770155781505,1,1,1
7,2,tool,0,0,tools,1,t_321.jpg,321,tbd,76.703898491065,82.7753535687607,6.01876026368594,0,1.49862785632558,0,2,1
8,2,animal,0,0,tools,1,a_000.jpg,0,tbd,87.3290241781951,97.0199603681021,9.65457444171479,1,0.953106423522513,0,1,0
9,2,animal,0,0,tools,1,a_023.jpg,23,tbd,101.557300871736,109.079737567919,7.48315542622647,1,2.06107403336773,0,1,0
10,2,tool,1,0,tools,1,t_242.jpg,242,tbd,113.633733400318,121.373275028377,7.70035221361608,1,2.12892407543222,1,1,1
11,2,animal,0,0,tools,1,a_154.jpg,154,tbd,126.127033454426,135.10090336075,8.92602035640428,1,2.04440812042321,0,1,0
12,2,animal,0,0,tools,1,a_077.jpg,77,tbd,139.638004277051,147.06033580498,7.37564983348812,0,2.26866635387159,0,2,1
13,2,animal,0,0,tools,1,a_147.jpg,147,tbd,151.63097926856,160.688161099309,9.00739891911647,1,1.18442270093146,0,1,0
14,2,tool,1,0,tools,1,t_230.jpg,230,tbd,165.258587106112,171.763770948496,6.47092359005883,1,0.928518733437159,1,1,1
15,2,animal,0,0,tools,1,a_050.jpg,50,tbd,176.501067768336,184.991119120849,8.45242758180991,1,0.88506105523993,0,1,0
16,2,tool,0,0,tools,1,t_338.jpg,338,tbd,189.528223885943,195.616363158349,6.03886144197298,1,0.991669079137864,0,1,0
17,2,tool,1,0,tools,1,t_353.jpg,353,tbd,200.153457018529,209.16056830412,8.95779367240829,0,1.82332065051924,1,2,0
18,2,tool,1,0,tools,1,t_339.jpg,339,tbd,213.914572411422,223.272010411385,9.31761498568547,0,2.27992856216133,1,2,0
19,2,animal,0,0,tools,1,a_039.jpg,39,tbd,228.009326475186,235.08153591621,7.02458424623589,0,2.73491228337389,0,2,1
20,2,animal,0,0,tools,1,a_095.jpg,95,tbd,239.618650624017,248.909366598848,9.24946722160922,1,1.0649779918831,0,1,0
21,2,animal,0,0,tools,1,a_132.jpg,132,tbd,253.463151389125,263.370873702596,9.86543623623734,0,1.10177437247876,0,2,1
22,2,tool,1,0,tools,1,t_204.jpg,204,tbd,267.924801218929,276.364668166172,8.39453237922831,1,1.09203596528278,1,1,1
23,2,animal,0,0,tools,1,a_146.jpg,146,tbd,281.118788378715,289.692188539916,8.53206862316354,0,1.18779392241959,0,2,1
24,2,tool,0,0,tools,1,t_188.jpg,188,tbd,294.212679030031,302.28552640841,8.03901789726264,1,2.0315056850668,0,1,0
25,2,tool,0,0,tools,1,t_259.jpg,259,tbd,306.839528655463,316.797440185194,9.92396190223969,1,0.995869715407935,0,1,0
26,2,tool,0,0,tools,1,t_326.jpg,326,tbd,321.351280782963,331.092315101042,9.69813699292636,0,1.62744437508627,0,2,1
27,2,animal,0,0,tools,1,a_153.jpg,153,tbd,335.646089307141,344.953447781428,9.26611717732048,0,1.30746089923559,0,2,1
28,2,animal,0,0,tools,1,a_155.jpg,155,tbd,349.490601939358,356.446095144476,6.90985812222854,0,0.909620200114659,0,2,1
29,2,animal,0,0,tools,1,a_021.jpg,21,tbd,360.999890839666,367.488340773771,6.44110094953426,0,0.875479807070406,0,2,1
30,2,tool,1,0,tools,1,t_208.jpg,208,tbd,372.04202389178,380.732341067563,8.64282099161248,1,1.14496776692431,1,1,1
31,2,tool,1,0,tools,1,t_293.jpg,293,tbd,385.469621850766,392.575196794613,7.0821791629534,1,0.903475602905928,1,1,1
32,2,animal,0,0,tools,1,a_082.jpg,82,tbd,397.312520556,405.035282411002,7.67200862655329,0,0.81476702994496,0,2,1
33,2,animal,0,0,tools,1,a_031.jpg,31,tbd,409.589023260899,416.544570669844,6.92035569507698,0,1.05785066965836,0,2,1
34,2,tool,0,0,tools,1,t_256.jpg,256,tbd,421.081681208127,428.137397611134,7.01464320859919,1,1.64855852995061,0,1,0
35,2,tool,0,0,tools,1,t_317.jpg,317,tbd,432.674367989224,442.415392364589,9.69259690222585,0,1.40685468234551,0,2,1
36,2,tool,0,0,tools,1,t_330.jpg,330,tbd,446.952543635925,453.657692133565,6.65440741215425,0,1.49584357569165,0,2,1
37,2,animal,0,0,tools,1,a_088.jpg,88,tbd,458.211602651065,464.349715928083,6.09657389831047,0,1.00620693056953,0,2,1
38,2,animal,0,0,tools,1,a_058.jpg,58,tbd,468.886852124982,475.908975304945,6.98265660990866,0,0.808320302525317,0,2,1
39,2,tool,1,0,tools,1,t_298.jpg,298,tbd,480.462911160328,490.470881047375,9.96414565985034,1,1.17784575603309,1,1,1
40,2,animal,0,0,tools,1,a_171.jpg,171,tbd,495.224800160511,502.146921127417,6.87490811565843,0,1.04119149210055,0,2,1
41,2,tool,1,0,tools,1,t_305.jpg,305,tbd,506.684072398753,514.573610771376,7.8447673354671,1,1.37191566485762,1,1,1
42,2,tool,1,0,tools,1,t_218.jpg,218,tbd,519.327561316316,526.68336357947,7.30582830273112,0,2.37156414181118,1,2,0
43,2,tool,0,0,tools,1,t_301.jpg,301,tbd,531.420688623787,541.411747558102,9.93529163128389,1,0.919630588647124,0,1,0
44,2,animal,0,0,tools,1,a_114.jpg,114,tbd,545.9490377067,552.654320912077,6.67903919760059,0,1.03439067577165,0,2,1
45,2,tool,1,0,tools,1,t_261.jpg,261,tbd,557.191352870846,566.748839237301,9.5126157221015,1,1.26588816716048,1,1,1
46,2,animal,0,0,tools,1,a_149.jpg,149,tbd,571.486313101595,581.427559680579,9.90707393403266,0,1.32708108114821,0,2,1
47,2,animal,0,0,tools,1,a_002.jpg,2,tbd,585.981288663366,595.955941798961,9.9375039186008,0,1.1380659197921,0,2,1
48,2,animal,0,0,tools,1,a_090.jpg,90,tbd,600.493008717595,608.215817399573,7.69301310245136,0,1.15164221456689,0,2,1
49,2,tool,1,0,tools,1,t_312.jpg,312,tbd,612.736273250555,622.377257887139,9.60545455344629,1,0.792605362057657,1,1,1
50,2,tool,1,0,tools,1,t_194.jpg,194,tbd,627.1311978479,636.922115082504,9.74166274945299,0,1.47125620633778,1,2,0
51,2,tool,1,0,tools,1,t_274.jpg,274,tbd,641.659591833391,651.283905425306,9.57943117424866,0,0.888833192611855,1,2,0
52,2,animal,0,0,tools,1,a_106.jpg,106,tbd,656.037849876326,662.576348545766,6.50582692670259,0,0.889784806555326,0,2,1
53,2,animal,0,0,tools,1,a_070.jpg,70,tbd,667.130131732381,674.102131446287,6.93246649342823,0,0.895336048255558,0,2,1
54,2,tool,1,0,tools,1,t_221.jpg,221,tbd,678.639438272986,687.262948108735,8.58073749373169,1,0.742965240192461,1,1,1
55,2,tool,1,0,tools,1,t_356.jpg,356,tbd,692.01679473628,699.656265835215,7.59519111171934,1,0.772037735727281,1,1,1
56,2,animal,0,0,tools,1,a_111.jpg,111,tbd,704.393519356139,713.600785170747,9.18163906831513,0,0.875944228029766,0,2,1
57,2,animal,0,0,tools,1,a_080.jpg,80,tbd,718.154672916224,727.762218922925,9.58230749820058,0,0.755594090548584,0,2,1
58,2,tool,1,0,tools,1,t_280.jpg,280,tbd,732.282685037354,738.620822625912,6.28867668843043,0,2.0547421282572,1,2,0
59,2,animal,0,0,tools,1,a_032.jpg,32,tbd,743.374975873925,750.980947724498,7.5741878236745,0,0.608941946657978,0,2,1
60,2,tool,1,0,tools,1,t_191.jpg,191,tbd,755.534793774723,761.906607335366,6.31808587882966,0,1.49485700188325,1,2,0
