trial,phase,object,toShock,seenBefore,shockedCategory,responseSide,filename,num,name,onsetFixationCross,onsetStimulus,interTrialTime,response,reactionTime,wasShocked,buttonPressed,isResponseCorrect
1,2,tool,0,0,animals,1,t_271.jpg,271,tbd,0.0254047229454955,7.38109034038735,7.26152696750148,1,1.35955219583684,0,1,0
2,2,tool,0,0,animals,1,t_352.jpg,352,tbd,11.9515235773288,21.826381170682,9.82194658172995,1,1.84372100287965,0,1,0
3,2,animal,1,0,animals,1,a_019.jpg,19,tbd,26.3802262784366,33.2521901943883,6.83631945594002,1,0.954474244234916,1,1,1
4,2,tool,0,0,animals,1,t_300.jpg,300,tbd,38.0063049125647,45.128729404968,7.08078388883066,0,1.5374014192721,0,2,1
5,2,tool,0,0,animals,1,t_277.jpg,277,tbd,49.6659103691763,57.6387693942943,7.93540793431837,0,1.0379162000545,0,2,1
6,2,tool,0,0,animals,1,t_222.jpg,222,tbd,62.1927803224007,69.69875402464,7.46492530614808,0,1.15935410947441,0,2,1
7,2,animal,1,0,animals,1,a_153.jpg,153,tbd,74.2526466012769,80.3908304418428,6.09126783160825,1,0.765754326034767,1,1,1
8,2,animal,1,0,animals,1,a_072.jpg,72,tbd,85.1448585613825,94.4523372837766,9.27072971684671,1,1.2058348050341,1,1,1
9,2,animal,1,0,animals,1,a_169.jpg,169,tbd,99.1896569982446,106.145221634184,6.91388523035004,1,0.840378616247108,1,1,1
10,2,tool,0,0,animals,1,t_232.jpg,232,tbd,110.899211265441,119.32256986847,8.38616494120371,0,0.96261483679973,0,2,1
11,2,tool,0,0,animals,1,t_276.jpg,276,tbd,123.876466935406,132.56686782936,8.63043485095274,0,0.833829514178433,0,2,1
12,2,tool,0,0,animals,1,t_220.jpg,220,tbd,137.103848975234,146.961675824146,9.82005223023156,0,0.759632123171286,0,2,1
13,2,animal,1,0,animals,1,a_157.jpg,157,tbd,151.515676809447,158.421178132161,6.8592007779105,1,0.766573805723965,1,1,1
14,2,tool,0,0,animals,1,t_356.jpg,356,tbd,163.175193743008,169.446710617554,6.21639811596538,0,0.714555929200287,0,2,1
15,2,animal,0,0,animals,1,a_037.jpg,37,tbd,174.000685943999,181.389920514688,7.33682139206941,1,0.721947603928129,0,1,0
16,2,animal,1,0,animals,1,a_063.jpg,63,tbd,185.927054010014,192.81591075406,6.84105962327785,1,1.08229158654194,1,1,1
17,2,animal,1,0,animals,1,a_141.jpg,141,tbd,197.569916742837,204.37513363714,6.75727237722767,1,0.842499962105649,1,1,1
18,2,tool,0,0,animals,1,t_303.jpg,303,tbd,209.11264226493,217.769699476479,8.59712744033725,0,1.2304750037365,0,2,1
19,2,animal,1,0,animals,1,a_045.jpg,45,tbd,222.323463117368,229.829422386501,7.46168181273874,1,1.07422572539235,1,1,1
20,2,animal,1,0,animals,1,a_010.jpg,10,tbd,234.583452430456,243.523899510349,8.89408441916271,1,1.00432234381151,1,1,1
21,2,tool,0,0,animals,1,t_216.jpg,216,tbd,248.277953288744,257.685626954291,9.34689836029211,0,0.852176237157437,0,2,1
22,2,tool,0,0,animals,1,t_316.jpg,316,tbd,262.239346012919,270.946274737751,8.67764018911504,0,1.04807069202252,0,2,1
23,2,tool,0,0,animals,1,t_274.jpg,274,tbd,275.50016122041,281.838469698865,6.28129610670142,0,0.849313991853705,0,2,1
24,2,animal,0,0,animals,1,a_118.jpg,118,tbd,286.39239210392,293.664773681889,7.2386065641474,1,0.911482832253569,0,1,0
25,2,animal,0,0,animals,1,a_021.jpg,21,tbd,298.218709237108,306.124837918833,7.86808259501046,1,1.02092618904771,0,1,0
26,2,tool,0,0,animals,1,t_202.jpg,202,tbd,310.662179250887,319.986308645928,9.27736225689321,0,1.35804345514771,0,2,1
27,2,tool,0,0,animals,1,t_322.jpg,322,tbd,324.523486082044,332.179579482843,7.60605622375248,0,1.42727040515638,0,2,1
28,2,tool,0,0,animals,1,t_228.jpg,228,tbd,336.733483285228,344.372886562891,7.59697081325329,0,1.36345971875653,0,2,1
29,2,animal,1,0,animals,1,a_024.jpg,24,tbd,348.910045717073,358.717890078154,9.77583685743257,1,1.18502675636501,1,1,1
30,2,tool,0,0,animals,1,t_334.jpg,334,tbd,363.45525533709,372.478950648448,8.98135378891876,0,1.37449430945981,0,2,1
31,2,animal,0,0,animals,1,a_025.jpg,25,tbd,377.033005196608,385.423011457368,8.34588690162699,1,1.11998219976249,0,1,0
32,2,tool,0,0,animals,1,t_305.jpg,305,tbd,389.96021006204,396.481896605766,6.46850020251997,0,1.71458447467739,0,2,1
33,2,animal,0,0,animals,1,a_008.jpg,8,tbd,401.035938965971,410.109838393522,9.03948008196087,1,1.02311905896386,0,1,0
34,2,tool,0,0,animals,1,t_208.jpg,208,tbd,414.64702609318,424.237871270213,9.54932078232136,0,1.00970493017303,0,2,1
35,2,animal,1,0,animals,1,a_065.jpg,65,tbd,428.791916196303,436.030985203228,7.19598197649871,1,1.06606075691434,1,1,1
36,2,animal,1,0,animals,1,a_068.jpg,68,tbd,440.785035774266,448.424435844571,7.58974199309588,1,0.806116667559763,1,1,1
37,2,animal,1,0,animals,1,a_015.jpg,15,tbd,453.161793085115,462.669228379897,9.46817683848613,1,0.830072416298208,1,1,1
38,2,tool,0,0,animals,1,t_256.jpg,256,tbd,467.423423923467,474.996155231633,7.53449979794578,0,1.11247858827846,0,2,1
39,2,tool,0,0,animals,1,t_351.jpg,351,tbd,479.533293217259,488.507132410647,8.92501779729206,0,1.00304741944092,0,2,1
40,2,animal,1,0,animals,1,a_139.jpg,139,tbd,493.04428098055,501.033999156513,7.95527962320251,1,1.00085743614454,1,1,1
41,2,tool,0,0,animals,1,t_346.jpg,346,tbd,505.788059670358,512.977109946319,7.15083400028886,0,1.1310722777398,0,2,1
42,2,tool,0,0,animals,1,t_225.jpg,225,tbd,517.530963713937,524.669954204765,7.07641282649183,0,1.24971337193529,0,2,1
43,2,animal,1,0,animals,1,a_070.jpg,70,tbd,529.223833951974,536.412868511886,7.13569757676882,1,1.04829296185653,1,1,1
44,2,animal,1,0,animals,1,a_082.jpg,82,tbd,541.166929346467,547.571988374662,6.35869881027776,1,0.892592783014152,1,1,1
45,2,tool,0,0,animals,1,t_240.jpg,240,tbd,552.326023871123,561.149744328159,8.77560072317893,0,1.04539126606232,0,2,1
46,2,tool,0,0,animals,1,t_342.jpg,342,tbd,565.703611566675,575.594842396304,9.85656400931153,0,1.16289086193501,0,2,1
47,2,animal,0,0,animals,1,a_161.jpg,161,tbd,580.148717011742,589.673138468703,9.48722102857027,1,1.12917288097924,0,1,0
48,2,tool,0,0,animals,1,t_343.jpg,343,tbd,594.210207175419,600.932205345943,6.67581492755589,0,1.15155125159072,0,2,1
49,2,animal,1,0,animals,1,a_071.jpg,71,tbd,605.469399139579,614.259574492196,8.74551189639677,1,1.11373715512946,1,1,1
50,2,animal,0,0,animals,1,a_131.jpg,131,tbd,619.013766507673,625.268716742323,6.20157483735218,1,1.10202805726931,0,1,0
51,2,tool,0,0,animals,1,t_355.jpg,355,tbd,629.805896744325,638.145867595865,8.28647639706687,0,1.69538427402495,0,2,1
52,2,animal,1,0,animals,1,a_174.jpg,174,tbd,642.699764983537,651.690248755594,8.94443962255578,1,0.913566331300899,1,1,1
53,2,animal,0,0,animals,1,a_094.jpg,94,tbd,656.444313439002,663.916874821399,7.42534561692215,1,1.00845694760028,0,1,0
54,2,tool,0,0,animals,1,t_185.jpg,185,tbd,668.454043276915,674.642344635038,6.14156727138422,0,1.62844513169784,0,2,1
55,2,animal,0,0,animals,1,a_088.jpg,88,tbd,679.196208666199,688.270110980371,9.03387778265066,1,1.33420252978613,0,1,0
56,2,animal,0,0,animals,1,a_028.jpg,28,tbd,692.807295472672,699.595865222421,6.74800404739737,1,1.038885463312,0,1,0
57,2,tool,0,0,animals,1,t_306.jpg,306,tbd,704.149904696003,712.990287372171,8.79420507331261,0,1.39004517942249,0,2,1
58,2,tool,0,0,animals,1,t_233.jpg,233,tbd,717.544171609679,724.416319307183,6.81777074626517,0,1.88050810365985,0,2,1
59,2,animal,1,0,animals,1,a_001.jpg,1,tbd,728.970154151395,738.72796278252,9.720912702389,1,1.25739851982144,1,1,1
60,2,animal,1,0,animals,1,a_155.jpg,155,tbd,743.465308155844,751.004600523104,7.49257310522397,1,0.875186777815543,1,1,1
