trial,phase,object,toShock,seenBefore,shockedCategory,responseSide,filename,num,name,onsetFixationCross,onsetStimulus,interTrialTime,response,reactionTime,wasShocked,buttonPressed,isResponseCorrect
1,3,animal,0,0,animals,1,a_092.jpg,92,tbd,0.0325612086903675,6.78762548171517,6.67208173806505,animal,0.902313582473198,0,1,1
2,3,tool,0,0,animals,1,t_254.jpg,254,tbd,9.3399703349819,14.8276133452282,5.44832656849703,tool,1.00763929992627,0,2,1
3,3,animal,0,0,animals,1,a_066.jpg,66,tbd,17.3797962289973,22.3002772238815,4.86798737527244,animal,0.97863681714216,0,1,1
4,3,animal,0,0,animals,1,a_112.jpg,112,tbd,24.8357608920637,32.2082493625621,7.32917709958723,animal,0.850372690755648,0,1,1
5,3,tool,0,0,animals,1,t_350.jpg,350,tbd,34.7604447548665,42.3662417875212,7.58008483451613,tool,0.761679476700465,0,2,1
6,3,animal,0,0,animals,1,a_101.jpg,101,tbd,44.9185593785951,49.8722700997891,4.90823274390566,animal,0.92976372393241,0,1,1
7,3,animal,0,0,animals,1,a_054.jpg,54,tbd,52.4079346606386,58.0955432884493,5.63469906652279,animal,0.629878642092535,0,1,1
8,3,tool,0,0,animals,1,t_193.jpg,193,tbd,60.6645713207186,65.4515220957828,4.74996631360908,tool,1.10569659607472,0,2,1
9,3,animal,0,0,animals,1,a_061.jpg,61,tbd,67.9704505569025,74.2920536636379,6.26508777572838,animal,0.942751753263565,0,1,1
10,3,animal,0,0,animals,1,a_064.jpg,64,tbd,76.8440492401064,82.3317477369333,5.45825204588261,animal,1.04529865145196,0,1,1
11,3,animal,0,0,animals,1,a_124.jpg,124,tbd,84.8839947670381,89.5875113653838,4.66399885060173,animal,0.977560441628157,0,1,1
12,3,tool,0,0,animals,1,t_296.jpg,296,tbd,92.1231355140417,96.943584467831,4.79012136259337,tool,0.804803454568628,0,2,1
13,3,tool,0,0,animals,1,t_338.jpg,338,tbd,99.479018743335,104.416261817214,4.89459051220761,tool,0.853389492926453,0,2,1
14,3,tool,0,0,animals,1,t_263.jpg,263,tbd,106.951657604917,114.607599111157,7.60394071326464,tool,1.33537287196941,0,2,1
15,3,animal,0,0,animals,1,a_107.jpg,107,tbd,117.159911570523,123.815166710971,6.6240075174251,animal,0.806018065436547,0,1,1
16,3,animal,0,0,animals,1,a_177.jpg,177,tbd,126.350651341348,132.388681137963,6.00633039618273,animal,0.927748246062947,0,1,1
17,3,animal,0,0,animals,1,a_097.jpg,97,tbd,134.940844136368,142.680469990035,7.67449592753504,animal,0.564179323551343,0,1,1
18,3,tool,0,0,animals,1,t_223.jpg,223,tbd,145.232510468938,151.087022409939,5.82386751103279,tool,0.816605097420506,0,2,1
19,3,tool,0,0,animals,1,t_308.jpg,308,tbd,153.622597807382,158.559595200796,4.88361493380676,tool,0.758608791608367,0,2,1
20,3,tool,0,0,animals,1,t_243.jpg,243,tbd,161.111941978453,165.431950728013,4.28590553434682,tool,0.764078549657825,0,2,1
21,3,animal,0,0,animals,1,a_049.jpg,49,tbd,167.967436320585,175.223119445384,7.2147811856818,animal,0.8524641820336,0,1,1
22,3,animal,0,0,animals,1,a_096.jpg,96,tbd,177.758566229424,183.246091210412,5.4502657417768,animal,0.753761894478885,0,1,1
23,3,tool,0,0,animals,1,t_292.jpg,292,tbd,185.781772128577,193.504328963033,7.6864817144463,tool,0.65583224953798,0,2,1
24,3,animal,0,0,animals,1,a_069.jpg,69,tbd,196.039987750712,202.778613883737,6.68985899229361,animal,0.671790895678441,0,1,1
25,3,tool,0,0,animals,1,t_231.jpg,231,tbd,205.330818256528,211.635598345249,6.26140401089478,tool,0.663053523285726,0,2,1
26,3,tool,0,0,animals,1,t_265.jpg,265,tbd,214.187842168037,221.493619732279,7.27911182512866,tool,0.757986572151367,0,2,1
27,3,tool,0,0,animals,1,t_287.jpg,287,tbd,224.012459671455,229.500058099999,5.42753284614301,tool,1.13113190112745,0,2,1
28,3,animal,0,0,animals,1,a_011.jpg,11,tbd,232.052254454498,237.356280823774,5.27132325421813,animal,0.800113074498313,0,1,1
29,3,animal,0,0,animals,1,a_167.jpg,167,tbd,239.908575642899,245.829859429175,5.87719679733245,animal,1.09178678389844,0,1,1
30,3,animal,0,0,animals,1,a_091.jpg,91,tbd,248.381982656852,255.487427686489,7.06529196238391,animal,0.796500032137374,0,1,1
31,3,tool,0,0,animals,1,t_242.jpg,242,tbd,258.039824819019,265.962583008823,7.88645575007909,tool,0.773278417131223,0,2,1
32,3,animal,0,0,animals,1,a_104.jpg,104,tbd,268.481534241892,276.487826355965,7.95727271892954,animal,1.60324925299983,0,1,1
33,3,animal,0,0,animals,1,a_027.jpg,27,tbd,279.006632939047,285.028032477386,5.98238512211242,animal,0.763698482618565,0,1,1
34,3,tool,0,0,animals,1,t_256.jpg,256,tbd,287.596887635281,294.852539328375,7.21367267034327,tool,0.731483551339807,0,2,1
35,3,tool,0,0,animals,1,t_343.jpg,343,tbd,297.40478443409,303.993255862189,6.54996367672863,tool,0.606998927056338,0,2,1
36,3,tool,0,0,animals,1,t_307.jpg,307,tbd,306.545373316696,312.666907850999,6.08077353623379,tool,0.615604478728983,0,2,1
37,3,animal,0,0,animals,1,a_007.jpg,7,tbd,315.219098111596,323.041764604212,7.76827938135212,animal,0.549041109045447,0,1,1
38,3,animal,0,0,animals,1,a_144.jpg,144,tbd,325.577414732136,331.231662775112,5.60261097148896,animal,1.69435853879168,0,1,1
39,3,animal,0,0,animals,1,a_166.jpg,166,tbd,333.783975555211,339.221716565021,5.37991168306379,animal,1.09955201857338,0,1,1
40,3,tool,0,0,animals,1,t_218.jpg,218,tbd,341.773674295152,345.926943304678,4.12415574579274,tool,0.737341394720715,0,2,1
41,3,tool,0,0,animals,1,t_245.jpg,245,tbd,348.445745718248,355.367700795928,6.88100719586291,tool,1.1530567979562,0,2,1
42,3,tool,0,0,animals,1,t_234.jpg,234,tbd,357.903254062885,362.590346954156,4.64253250829455,tool,1.47065043797511,0,2,1
43,3,animal,0,0,animals,1,a_150.jpg,150,tbd,365.125812982096,372.364866810814,7.1880351161072,animal,0.672294123682605,0,1,1
44,3,tool,0,0,animals,1,t_325.jpg,325,tbd,374.917045525071,382.622973384178,7.67571572068698,tool,0.812345459994958,0,2,1
45,3,tool,0,0,animals,1,t_329.jpg,329,tbd,385.158592721861,391.646892590585,6.44210970639394,tool,0.784867735611897,0,2,1
46,3,animal,0,0,animals,1,a_129.jpg,129,tbd,394.199199276782,401.287954392052,7.04415126021025,animal,0.672073460287265,0,1,1
47,3,animal,0,0,animals,1,a_042.jpg,42,tbd,403.840205591668,408.844145138879,4.94911978117898,animal,0.609064759799367,0,1,1
48,3,animal,0,0,animals,1,a_140.jpg,140,tbd,411.396342455573,417.384355750543,5.94789017092013,animal,0.667043746101172,0,1,1
49,3,tool,0,0,animals,1,t_185.jpg,185,tbd,419.936528370898,425.390794759725,5.41635742071051,tool,0.696884942225097,0,2,1
50,3,tool,0,0,animals,1,t_304.jpg,304,tbd,427.942975719105,434.648194761201,6.66680515976131,tool,0.700763550416468,0,2,1
51,3,tool,0,0,animals,1,t_261.jpg,261,tbd,437.200333063267,444.272638812927,7.01546870980418,tool,0.717480085513671,0,2,1
52,3,animal,0,0,animals,1,a_006.jpg,6,tbd,446.824822017428,453.813496661119,6.93384651518441,animal,0.790013554666075,0,1,1
53,3,animal,0,0,animals,1,a_024.jpg,24,tbd,456.365726371713,463.43801800918,7.03726848517882,animal,0.929757309298566,0,1,1
54,3,tool,0,0,animals,1,t_186.jpg,186,tbd,465.990180686853,473.012384620243,6.99168706458136,tool,0.64519550414343,0,2,1
55,3,tool,0,0,animals,1,t_236.jpg,236,tbd,475.547868929888,483.037052093656,7.44513904140289,tool,0.664183140258501,0,2,1
56,3,tool,0,0,animals,1,t_303.jpg,303,tbd,485.589267050593,491.610617516985,5.96683295519964,tool,0.578899624679707,0,2,1
57,3,animal,0,0,animals,1,a_068.jpg,68,tbd,494.162839530019,498.749719166797,4.55209555797561,animal,0.669032603240794,0,1,1
58,3,animal,0,0,animals,1,a_116.jpg,116,tbd,501.301895315201,509.091368003455,7.74877659384031,animal,0.919703974827826,0,1,1
59,3,tool,0,0,animals,1,t_180.jpg,180,tbd,511.643551207956,515.996880130159,4.31430516974814,tool,0.897375918279067,0,2,1
60,3,tool,0,0,animals,1,t_324.jpg,324,tbd,518.549089313926,525.60446075168,7.00806677081352,tool,0.648058996571763,0,2,1
