trial,phase,object,toShock,seenBefore,shockedCategory,responseSide,filename,num,name,onsetFixationCross,onsetStimulus,interTrialTime,response,reactionTime,wasShocked,buttonPressed,isResponseCorrect
1,3,tool,0,0,tools,2,t_314.jpg,314,tbd,0.0146855958514607,6.95335572899694,6.86752712929116,tool,0.96635300721664,0,1,1
2,3,animal,0,0,tools,2,a_050.jpg,50,tbd,9.52225729324255,17.4451643760149,7.88765369709459,animal,0.624860554538373,0,2,1
3,3,tool,0,0,tools,2,t_339.jpg,339,tbd,19.997500737386,27.9870195132389,7.93673279663384,tool,0.625359935363576,0,1,1
4,3,tool,0,0,tools,2,t_347.jpg,347,tbd,30.5226479456801,37.6950007221512,7.12155990166981,tool,0.536666116107426,0,1,1
5,3,tool,0,0,tools,2,t_264.jpg,264,tbd,40.2305069554309,47.1524941767984,6.86979968299741,tool,0.639469929362804,0,1,1
6,3,animal,0,0,tools,2,a_084.jpg,84,tbd,49.6881258165668,57.5608552294561,7.82183159414607,animal,0.610463184033051,0,2,1
7,3,tool,0,0,tools,2,t_226.jpg,226,tbd,60.1132150043145,67.0186485691847,6.868333029262,tool,1.09192627683933,0,1,1
8,3,animal,0,0,tools,2,a_110.jpg,110,tbd,69.570812055626,77.3601583414293,7.73403734428151,animal,0.5367405260954,0,2,1
9,3,tool,0,0,tools,2,t_242.jpg,242,tbd,79.8958374496383,87.0514729959309,7.11281859185755,tool,0.778748107575666,0,1,1
10,3,animal,0,0,tools,2,a_113.jpg,113,tbd,89.6036685556433,96.8926089542051,7.23465291622231,animal,0.974958907222572,0,2,1
11,3,animal,0,0,tools,2,a_117.jpg,117,tbd,99.4449036203241,104.048334305656,4.56027137277513,animal,0.661424724653443,0,2,1
12,3,animal,0,0,tools,2,a_179.jpg,179,tbd,106.600645970608,112.271638680033,5.62547790208405,animal,0.619353894684082,0,2,1
13,3,tool,0,0,tools,2,t_223.jpg,223,tbd,114.823964136492,120.945355372342,6.07817995771166,tool,0.605875423385442,0,1,1
14,3,animal,0,0,tools,2,a_055.jpg,55,tbd,123.497656132383,129.618975524107,6.06927504918345,animal,0.828586442254164,0,2,1
15,3,tool,0,0,tools,2,t_278.jpg,278,tbd,132.171326959915,137.024949683955,4.81670706543738,tool,0.82383382499529,0,1,1
16,3,animal,0,0,tools,2,a_014.jpg,14,tbd,139.577295346575,146.632801348927,7.02434421662869,animal,0.495262089436437,0,2,1
17,3,animal,0,0,tools,2,a_148.jpg,148,tbd,149.185027378247,155.957036136815,6.73645744335767,animal,0.554337205357569,0,2,1
18,3,animal,0,0,tools,2,a_123.jpg,123,tbd,158.509241959974,163.06262134411,4.51584609868705,animal,0.841986013306268,0,2,1
19,3,tool,0,0,tools,2,t_213.jpg,213,tbd,165.598289547407,172.904054942336,7.27129504790013,tool,1.44887451795694,0,1,1
20,3,animal,0,0,tools,2,a_026.jpg,26,tbd,175.456214900718,180.526689819259,5.0179153088663,animal,0.717442295674118,0,2,1
21,3,animal,0,0,tools,2,a_134.jpg,134,tbd,183.079074932002,187.899459484104,4.78587795741445,animal,1.12398286948383,0,2,1
22,3,tool,0,0,tools,2,t_240.jpg,240,tbd,190.451658571876,196.005991173618,5.50474092925647,tool,0.638833595671258,0,1,1
23,3,tool,0,0,tools,2,t_267.jpg,267,tbd,198.558207580956,203.028347526258,4.4405564510512,tool,0.651492274168959,0,1,1
24,3,tool,0,0,tools,2,t_338.jpg,338,tbd,205.580557518942,212.569386719474,6.95713360162754,tool,0.543761365061982,0,1,1
25,3,animal,0,0,tools,2,a_001.jpg,1,tbd,215.121580675523,222.860850963711,7.69747883124725,animal,0.536611912279568,0,2,1
26,3,animal,0,0,tools,2,a_074.jpg,74,tbd,225.396474905894,229.666481811269,4.22694420098061,animal,0.806198978541033,0,2,1
27,3,tool,0,0,tools,2,t_291.jpg,291,tbd,232.202010175106,238.723793218032,6.477973440502,tool,0.651185012235601,0,1,1
28,3,tool,0,0,tools,2,t_285.jpg,285,tbd,241.275954138612,247.9312331905,6.62186768552855,tool,1.68306776775262,0,1,1
29,3,tool,0,0,tools,2,t_230.jpg,230,tbd,250.483420731895,255.971090964789,5.43686218229045,tool,0.882452859005753,0,1,1
30,3,animal,0,0,tools,2,a_038.jpg,38,tbd,258.539912345857,266.212469910162,7.63172059345305,animal,0.546355130466964,0,2,1
31,3,animal,0,0,tools,2,a_037.jpg,37,tbd,268.764813327652,276.220551412192,7.40738245154067,animal,0.505589361883722,0,2,1
32,3,animal,0,0,tools,2,a_048.jpg,48,tbd,278.77290765899,285.427959952855,6.61532396552198,animal,0.546484065015193,0,2,1
33,3,tool,0,0,tools,2,t_304.jpg,304,tbd,287.980347310726,294.702307654693,6.69065684731812,tool,0.686422952604971,0,1,1
34,3,tool,0,0,tools,2,t_342.jpg,342,tbd,297.237782456167,302.191635754951,4.91106566412757,tool,0.612325358132694,0,1,1
35,3,animal,0,0,tools,2,a_128.jpg,128,tbd,304.727161873659,310.181312652029,5.40779927926487,animal,0.528905988250244,0,2,1
36,3,animal,0,0,tools,2,a_114.jpg,114,tbd,312.733609884009,316.903536638281,4.12195576023277,animal,0.675957123627995,0,2,1
37,3,animal,0,0,tools,2,a_007.jpg,7,tbd,319.455707501575,326.711288811966,7.20864982087893,animal,0.774437139254587,0,2,1
38,3,tool,0,0,tools,2,t_182.jpg,182,tbd,329.263631267259,335.001476540027,5.7028203572424,tool,0.771508528902814,0,1,1
39,3,animal,0,0,tools,2,a_136.jpg,136,tbd,337.536941719521,342.324018500686,4.7456350314102,animal,0.768206264946912,0,2,1
40,3,animal,0,0,tools,2,a_039.jpg,39,tbd,344.876176855404,350.747499534638,5.83016934791813,animal,0.472011854740231,0,2,1
41,3,tool,0,0,tools,2,t_337.jpg,337,tbd,353.282994863006,359.32091765687,6.01189229423531,tool,0.36282417767552,0,1,1
42,3,tool,0,0,tools,2,t_331.jpg,331,tbd,361.856582973573,366.226488816072,4.31362165282717,tool,0.797483387948432,0,1,1
43,3,tool,0,0,tools,2,t_315.jpg,315,tbd,368.778852439723,375.267251698061,6.44873599917848,tool,0.523998136361115,0,1,1
44,3,animal,0,0,tools,2,a_139.jpg,139,tbd,377.802775892372,383.924196314899,6.09022318915878,animal,0.501317843686138,0,2,1
45,3,tool,0,0,tools,2,t_249.jpg,249,tbd,386.47644030525,393.581928651266,7.07896476118397,tool,0.602897420197223,0,1,1
46,3,animal,0,0,tools,2,a_015.jpg,15,tbd,396.117531104358,402.939589881193,6.79513016817479,animal,0.590546965830981,0,2,1
47,3,tool,0,0,tools,2,t_261.jpg,261,tbd,405.491806609264,413.297949025491,7.75886978109028,tool,0.622501565474977,0,1,1
48,3,animal,0,0,tools,2,a_076.jpg,76,tbd,415.833400413478,420.987612227282,5.10685731104652,animal,0.589070312445983,0,2,1
49,3,animal,0,0,tools,2,a_046.jpg,46,tbd,423.539637157194,429.077182609028,5.4999810889925,animal,0.494785480633254,0,2,1
50,3,tool,0,0,tools,2,t_356.jpg,356,tbd,431.629533724104,436.249797424121,4.58016396254362,tool,0.588384906649935,0,1,1
51,3,animal,0,0,tools,2,a_018.jpg,18,tbd,438.785282168309,445.140124157737,6.30902295912357,animal,0.582338453648845,0,2,1
52,3,tool,0,0,tools,2,t_336.jpg,336,tbd,447.692431011699,451.962330471617,4.21588991380071,tool,1.02135930801069,0,1,1
53,3,tool,0,0,tools,2,t_310.jpg,310,tbd,454.497973337031,461.153214863192,6.61321083083785,tool,0.647737777095699,0,1,1
54,3,tool,0,0,tools,2,t_272.jpg,272,tbd,463.705406574112,468.342356713967,4.59630508283054,tool,0.753800555391535,0,1,1
55,3,animal,0,0,tools,2,a_009.jpg,9,tbd,470.894528539459,478.600604275356,7.6656689761658,animal,0.63989939045814,0,2,1
56,3,animal,0,0,tools,2,a_167.jpg,167,tbd,481.15280240093,488.041524508811,6.8612009173735,animal,0.613247464666529,0,2,1
57,3,animal,0,0,tools,2,a_091.jpg,91,tbd,490.593728407574,496.064551513543,5.41617858602742,animal,0.879483836332838,0,2,1
58,3,tool,0,0,tools,2,t_268.jpg,268,tbd,498.616902949351,506.106083833297,7.44419892995834,tool,0.566266216945678,0,1,1
59,3,tool,0,0,tools,2,t_330.jpg,330,tbd,508.658284204,515.196804683264,6.51448629887717,tool,0.786825440080065,0,1,1
60,3,tool,0,0,tools,2,t_231.jpg,231,tbd,517.732333688566,524.070452033162,6.30530677286223,tool,0.642455309403886,0,1,1
