trial,phase,object,toShock,seenBefore,shockedCategory,responseSide,filename,num,name,onsetFixationCross,onsetStimulus,interTrialTime,response,reactionTime,wasShocked,buttonPressed,isResponseCorrect
1,2,tool,0,0,animals,2,t_352.jpg,352,tbd,0.0260522856033276,10.0840476292205,9.95348345872852,0,1.14355479563892,0,2,1
2,2,tool,0,0,animals,2,t_262.jpg,262,tbd,14.6543403064998,22.8107528072096,8.1127838856754,0,1.07620018090347,0,2,1
3,2,tool,0,0,animals,2,t_284.jpg,284,tbd,27.364662831068,34.2532935665931,6.84140013586979,1,2.08396958508911,0,1,0
4,2,animal,0,0,animals,2,a_063.jpg,63,tbd,38.823937124328,47.3305924670285,8.45248352815516,1,1.42398044506444,0,1,0
5,2,tool,0,0,animals,2,t_294.jpg,294,tbd,51.88442455309,60.8581640054272,8.94387389709661,1,2.40993015241293,0,1,0
6,2,animal,1,0,animals,2,a_119.jpg,119,tbd,65.4118944195461,71.7335684079826,6.27520951306198,1,2.49383131445575,1,1,1
7,2,animal,1,0,animals,2,a_011.jpg,11,tbd,76.4875062713518,83.8431252177415,7.30995666919103,1,0.954556918562048,1,1,1
8,2,tool,0,0,animals,2,t_311.jpg,311,tbd,88.5805768313594,97.4540671072555,8.82202398982798,0,1.52094949862749,0,2,1
9,2,animal,0,0,animals,2,a_116.jpg,116,tbd,102.008017864038,111.582218977554,9.52804249859254,0,1.71824791154995,0,2,1
10,2,tool,0,0,animals,2,t_334.jpg,334,tbd,116.119276796816,122.290742197405,6.13647380927892,0,1.35705208273066,0,2,1
11,2,tool,0,0,animals,2,t_342.jpg,342,tbd,126.827959741043,134.050293185885,7.19658094951095,1,1.58086794939027,0,1,0
12,2,tool,0,0,animals,2,t_205.jpg,205,tbd,138.587409699044,146.460208156709,7.83394182952177,0,1.14726534043075,0,2,1
13,2,animal,0,0,animals,2,a_108.jpg,108,tbd,151.013981869604,157.218901187947,6.15718780819845,0,1.05483945109791,0,2,1
14,2,animal,1,0,animals,2,a_083.jpg,83,tbd,161.772700238645,168.561189563573,6.73722080509414,0,1.31582972298474,1,2,0
15,2,tool,0,0,animals,2,t_301.jpg,301,tbd,173.315317941559,179.419895071273,6.06264668372424,0,0.964395683539806,0,2,1
16,2,animal,1,0,animals,2,a_156.jpg,156,tbd,183.97387918415,192.547299316029,8.52972961431272,0,1.291471434909,1,2,0
17,2,animal,1,0,animals,2,a_014.jpg,14,tbd,197.30124712208,203.355947909893,6.00958795372523,1,3.10519849417597,1,1,1
18,2,tool,0,0,animals,2,t_270.jpg,270,tbd,208.109953447646,217.417089631279,9.26466977028634,0,1.40436609925018,0,2,1
19,2,tool,0,0,animals,2,t_192.jpg,192,tbd,221.971004466113,230.711283970943,8.70054604615673,0,0.889188274381013,0,2,1
20,2,tool,0,0,animals,2,t_332.jpg,332,tbd,235.231722116074,241.336461215286,6.04855057480971,0,0.899647655157423,0,2,1
21,2,animal,1,0,animals,2,a_171.jpg,171,tbd,245.890272453788,253.21270208606,7.28228607232256,1,1.34041059884566,1,1,1
22,2,animal,1,0,animals,2,a_017.jpg,17,tbd,257.933308551177,264.038065611363,6.06244380440594,1,1.51271759936026,1,1,1
23,2,animal,1,0,animals,2,a_010.jpg,10,tbd,268.791958893029,277.932566378072,9.09368775296945,1,1.02559353296965,1,1,1
24,2,tool,0,0,animals,2,t_226.jpg,226,tbd,282.68643913291,290.209088402235,7.47876067056961,0,0.900331775827908,0,2,1
25,2,animal,1,0,animals,2,a_092.jpg,92,tbd,294.77951578682,301.117688533543,6.30965517112117,1,0.840766771375456,1,1,1
26,2,tool,0,0,animals,2,t_340.jpg,340,tbd,305.855106791066,313.060746793491,7.17540577034077,0,1.09439785489303,0,2,1
27,2,animal,0,0,animals,2,a_157.jpg,157,tbd,317.614572144186,325.303782506,7.63117491425104,1,2.47237276148826,0,1,0
28,2,tool,0,0,animals,2,t_277.jpg,277,tbd,329.857737432295,338.164275451347,8.26853017979445,0,1.40048845325327,0,2,1
29,2,tool,0,0,animals,2,t_258.jpg,258,tbd,342.718051409364,349.022854270034,6.24622300342091,0,2.86799464578053,0,2,1
30,2,animal,1,0,animals,2,a_072.jpg,72,tbd,353.576812082913,361.833282283253,8.21424803884418,1,2.56693215794803,1,1,1
31,2,animal,1,0,animals,2,a_047.jpg,47,tbd,366.570547872496,376.411497032997,9.79492310727461,0,1.64242822561755,1,2,0
32,2,tool,0,0,animals,2,t_236.jpg,236,tbd,381.165615789032,388.087712309382,6.87939156962663,0,1.67557616534941,0,2,1
33,2,animal,1,0,animals,2,a_058.jpg,58,tbd,392.641507832032,401.064649456557,8.38178779644525,0,2.07997743788474,1,2,0
34,2,tool,0,0,animals,2,t_187.jpg,187,tbd,405.818734856499,412.807402764824,6.94449561472131,0,0.866540127617554,0,2,1
35,2,animal,0,0,animals,2,a_039.jpg,39,tbd,417.361357049655,423.666273449339,6.26491419124101,1,3.44603491749149,0,1,0
36,2,tool,0,0,animals,2,t_346.jpg,346,tbd,428.220116440278,437.760967553105,9.4990777628674,0,0.864665450954817,0,2,1
37,2,tool,0,0,animals,2,t_264.jpg,264,tbd,442.314632537961,449.636990967801,7.28611200242776,0,2.35304005016042,0,2,1
38,2,tool,0,0,animals,2,t_253.jpg,253,tbd,454.174164250467,463.898632966459,9.69041468253685,0,0.821743213312402,0,2,1
39,2,animal,0,0,animals,2,a_096.jpg,96,tbd,468.452355683018,475.241076255486,6.75171575598731,1,1.66359298836687,0,1,0
40,2,animal,1,0,animals,2,a_153.jpg,153,tbd,479.794856062283,486.316612735346,6.47584412930028,0,2.80145212365551,1,2,0
41,2,animal,0,0,animals,2,a_068.jpg,68,tbd,491.070595821881,498.960012991482,7.86142509361339,0,2.12437215466343,0,2,1
42,2,tool,0,0,animals,2,t_245.jpg,245,tbd,503.513913393391,513.004565828979,9.44815165588786,0,1.14512477720655,0,2,1
43,2,animal,1,0,animals,2,a_074.jpg,74,tbd,517.541835972613,524.980855418895,7.40170018548859,0,1.59891648314988,1,2,0
44,2,animal,1,0,animals,2,a_097.jpg,97,tbd,529.734997588344,539.44248452414,9.66039694094275,0,2.87271966487242,1,2,0
45,2,animal,1,0,animals,2,a_132.jpg,132,tbd,544.163258090462,552.45310491222,8.2484564958873,0,3.50984673010316,1,2,0
46,2,tool,0,0,animals,2,t_354.jpg,354,tbd,557.190356389269,564.229234200442,6.99297249607994,0,2.31102163438845,0,2,1
47,2,tool,0,0,animals,2,t_282.jpg,282,tbd,568.783027157238,577.289719384082,8.4653892582837,0,0.774502644347194,0,2,1
48,2,animal,0,0,animals,2,a_079.jpg,79,tbd,581.826826916754,589.415966749672,7.54068872088945,0,2.64498381563408,0,2,1
49,2,tool,0,0,animals,2,t_218.jpg,218,tbd,593.969858812557,602.042917319468,8.04484983993366,0,0.583244250397911,0,2,1
50,2,animal,0,0,animals,2,a_122.jpg,122,tbd,606.596746198212,615.420162561493,8.76976857985324,1,1.34811810181873,0,1,0
51,2,tool,0,0,animals,2,t_191.jpg,191,tbd,619.957486588049,628.314052655086,8.31714661692696,0,0.724945109735017,0,2,1
52,2,tool,0,0,animals,2,t_249.jpg,249,tbd,632.851121379225,642.325308412621,9.44434228528097,0,2.32411710883298,0,2,1
53,2,tool,0,0,animals,2,t_195.jpg,195,tbd,646.879076673078,655.269045020069,8.34650552047335,0,0.978339172542292,0,2,1
54,2,animal,1,0,animals,2,a_049.jpg,49,tbd,659.806148383229,665.877394114691,6.036115835803,0,2.18169813126769,1,2,0
55,2,animal,1,0,animals,2,a_151.jpg,151,tbd,670.631509342678,678.570932429779,7.89127914374017,1,1.75450213759086,1,1,1
56,2,animal,1,0,animals,2,a_098.jpg,98,tbd,683.325058241911,689.913360644416,6.54615088382656,1,3.28045526393998,1,1,1
57,2,tool,0,0,animals,2,t_343.jpg,343,tbd,694.667512435814,703.674428693736,8.9732723391185,0,0.890704052295405,0,2,1
58,2,tool,0,0,animals,2,t_296.jpg,296,tbd,708.228313700524,717.118561244441,8.85440909939858,0,0.64893362625844,0,2,1
59,2,animal,0,0,animals,2,a_006.jpg,6,tbd,721.672403593916,728.210976228896,6.49132149463515,0,2.21952682911979,0,2,1
60,2,animal,1,0,animals,2,a_128.jpg,128,tbd,732.731403789883,741.688467440047,8.91297074786318,1,1.94141173070784,1,1,1
