trial,phase,object,toShock,seenBefore,shockedCategory,responseSide,filename,num,name,onsetFixationCross,onsetStimulus,interTrialTime,response,reactionTime,wasShocked,buttonPressed,isResponseCorrect
1,3,tool,0,0,animals,2,t_187.jpg,187,tbd,0.0143956294846248,7.48706977155143,7.39491121508604,tool,1.44926082070197,0,1,1
2,3,tool,0,0,animals,2,t_302.jpg,302,tbd,10.0560131306579,17.1783103648922,7.09794508304724,tool,2.26430929448452,0,1,1
3,3,tool,0,0,animals,2,t_307.jpg,307,tbd,19.7304996632952,24.9512692204703,5.18563025283043,tool,1.17853987041281,0,1,1
4,3,animal,0,0,animals,2,a_059.jpg,59,tbd,27.4867432667024,34.6757308803658,7.13533254513274,animal,0.909363563888292,0,2,1
5,3,animal,0,0,animals,2,a_087.jpg,87,tbd,37.2278027909742,42.1652200221552,4.88825882776926,animal,1.32127829672982,0,2,1
6,3,animal,0,0,animals,2,a_038.jpg,38,tbd,44.7005863025433,51.3891539180736,6.65098042515999,animal,1.68340873766192,0,2,1
7,3,tool,0,0,animals,2,t_191.jpg,191,tbd,53.9580510918181,60.9301827162499,6.93850586805579,tool,0.944619352213067,0,1,1
8,3,tool,0,0,animals,2,t_198.jpg,198,tbd,63.4823617512388,67.7022970853182,4.18032280239687,tool,0.968649852512499,0,1,1
9,3,animal,0,0,animals,2,a_155.jpg,155,tbd,70.2543590532441,74.4577186534329,4.17351982728953,animal,1.01953040529997,0,2,1
10,3,animal,0,0,animals,2,a_028.jpg,28,tbd,76.9931981521036,83.6649520508377,6.61634748477807,animal,1.60852206018262,0,2,1
11,3,tool,0,0,animals,2,t_305.jpg,305,tbd,86.2173033187382,93.1392285683714,6.89170174249753,tool,0.846509776800758,0,1,1
12,3,tool,0,0,animals,2,t_323.jpg,323,tbd,95.6915894582226,101.2458965479,5.5096958490454,tool,0.850079199653464,0,1,1
13,3,tool,0,0,animals,2,t_316.jpg,316,tbd,103.814759724086,109.702579329195,5.85539701171585,tool,0.885662775754099,0,1,1
14,3,animal,0,0,animals,2,a_008.jpg,8,tbd,112.254894675148,119.060021955911,6.77196416774492,animal,1.57943843228395,0,2,1
15,3,animal,0,0,animals,2,a_027.jpg,27,tbd,121.612368733568,125.665524236153,4.02334564585517,animal,1.01211829620388,0,2,1
16,3,tool,0,0,animals,2,t_237.jpg,237,tbd,128.217678254071,136.157284799691,7.89237034212569,tool,0.905646604463072,0,1,1
17,3,tool,0,0,animals,2,t_317.jpg,317,tbd,138.692774241044,144.197071885174,5.45602987051823,tool,1.15507898957412,0,1,1
18,3,tool,0,0,animals,2,t_206.jpg,206,tbd,146.749261825039,151.402870970511,4.61990379889169,tool,1.38949343455943,0,1,1
19,3,animal,0,0,animals,2,a_006.jpg,6,tbd,153.955036855501,159.509364151274,5.51360012919572,tool,1.14522675386615,0,1,0
20,3,animal,0,0,animals,2,a_032.jpg,32,tbd,162.061530998459,166.364723144638,4.25594004592972,animal,1.10408553923617,0,2,1
21,3,tool,0,0,animals,2,t_245.jpg,245,tbd,168.917068639369,175.672201869705,6.69828928339265,tool,1.03490371612634,0,1,1
22,3,tool,0,0,animals,2,t_281.jpg,281,tbd,178.224559552239,182.928187123745,4.66009184477085,tool,1.05901119202917,0,1,1
23,3,animal,0,0,animals,2,a_057.jpg,57,tbd,185.480370007514,193.486672385001,7.9740401039223,animal,1.07086960438846,0,2,1
24,3,tool,0,0,animals,2,t_324.jpg,324,tbd,196.038856230966,200.842408719186,4.76411688172859,tool,0.835347672916214,0,1,1
25,3,tool,0,0,animals,2,t_290.jpg,290,tbd,203.394744591966,209.599456717644,6.16325062929901,tool,0.727525700807746,0,1,1
26,3,tool,0,0,animals,2,t_353.jpg,353,tbd,212.151787779449,219.123920686808,6.92854427106167,tool,0.857363016078125,0,1,1
27,3,animal,0,0,animals,2,a_162.jpg,162,tbd,221.659434183036,228.297982410336,6.59793349215171,animal,0.850538487417452,0,2,1
28,3,tool,0,0,animals,2,t_338.jpg,338,tbd,230.850167859959,236.571333360392,5.68575383501781,tool,0.852493667731324,0,1,1
29,3,animal,0,0,animals,2,a_086.jpg,86,tbd,239.123468775872,243.3266657651,4.14767592534243,animal,1.22228927505421,0,2,1
30,3,animal,0,0,animals,2,a_144.jpg,144,tbd,245.862214541813,252.283885290859,6.38159790098507,animal,0.952306007626248,0,2,1
31,3,tool,0,0,animals,2,t_293.jpg,293,tbd,254.819409050502,260.807275129631,5.94435420537909,tool,1.04518733594296,0,1,1
32,3,animal,0,0,animals,2,a_058.jpg,58,tbd,263.359588551193,270.448495372546,7.04656497105424,animal,0.814265979671291,0,2,1
33,3,animal,0,0,animals,2,a_080.jpg,80,tbd,273.000627259979,280.122942775919,7.08636457770506,animal,1.35306537194856,0,2,1
34,3,animal,0,0,animals,2,a_061.jpg,61,tbd,282.658446970929,289.580552471766,6.87865187131332,animal,0.963659267591083,0,2,1
35,3,tool,0,0,animals,2,t_311.jpg,311,tbd,292.14940762966,297.47013834623,5.28061672309463,tool,1.19734148215321,0,1,1
36,3,tool,0,0,animals,2,t_219.jpg,219,tbd,300.022392432431,305.243124784732,5.16166490203966,tool,1.19256514599329,0,1,1
37,3,tool,0,0,animals,2,t_194.jpg,194,tbd,307.778601717549,313.249523702455,5.42140110782234,tool,0.975383614108068,0,1,1
38,3,animal,0,0,animals,2,a_018.jpg,18,tbd,315.801755337439,323.324154115323,7.47480611677278,animal,0.902064352342677,0,2,1
39,3,animal,0,0,animals,2,a_143.jpg,143,tbd,325.876503458834,332.147916868817,6.22683976593785,animal,0.956549287736379,0,2,1
40,3,animal,0,0,animals,2,a_083.jpg,83,tbd,334.683547752841,342.389631808275,7.65981718244269,animal,0.939099560021077,0,2,1
41,3,tool,0,0,animals,2,t_197.jpg,197,tbd,344.925131513041,349.395267705334,4.43445428633693,tool,0.973700414258019,0,1,1
42,3,tool,0,0,animals,2,t_343.jpg,343,tbd,351.947460852517,357.801842576456,5.81287687001913,tool,0.830331750192272,0,1,1
43,3,tool,0,0,animals,2,t_189.jpg,189,tbd,360.354165940701,365.775068858108,5.37309779750263,tool,0.94252721947214,0,1,1
44,3,animal,0,0,animals,2,a_127.jpg,127,tbd,368.327285739435,375.416169468107,7.04169852279075,animal,0.863492519190913,0,2,1
45,3,animal,0,0,animals,2,a_164.jpg,164,tbd,377.951646400925,385.757632921855,7.75603012505236,animal,0.962314439661895,0,2,1
46,3,animal,0,0,animals,2,a_053.jpg,53,tbd,388.309979699512,395.915904383375,7.56704701882191,animal,0.961311511702661,0,2,1
47,3,tool,0,0,animals,2,t_244.jpg,244,tbd,398.468136339091,403.722222861593,5.2042396943191,tool,1.46125586475591,0,1,1
48,3,animal,0,0,animals,2,a_063.jpg,63,tbd,406.274391312436,410.444293146091,4.13008623875503,animal,0.842382280826769,0,2,1
49,3,tool,0,0,animals,2,t_225.jpg,225,tbd,412.979812736222,418.650742675273,5.61766939194645,tool,1.10532484644273,0,1,1
50,3,animal,0,0,animals,2,a_000.jpg,0,tbd,421.203080151712,427.324373495791,6.07355350948072,animal,1.03278079314487,0,2,1
51,3,animal,0,0,animals,2,a_173.jpg,173,tbd,429.876729574667,435.647884635284,5.72354900683494,animal,0.879471692158859,0,2,1
52,3,animal,0,0,animals,2,a_166.jpg,166,tbd,438.2000325593,444.555051737451,6.32287967565903,animal,0.849553199700495,0,2,1
53,3,tool,0,0,animals,2,t_212.jpg,212,tbd,447.12390978193,453.228668445775,6.069496770624,tool,0.953232280714474,0,1,1
54,3,tool,0,0,animals,2,t_214.jpg,214,tbd,455.764190281027,463.720429009314,7.90936900534971,tool,1.19674684562096,0,1,1
55,3,animal,0,0,animals,2,a_154.jpg,154,tbd,466.272637551617,471.943721762606,5.62425334311004,animal,1.04765312108884,0,2,1
56,3,animal,0,0,animals,2,a_040.jpg,40,tbd,474.495904004912,479.683432013063,5.1568857916242,animal,1.2171818994434,0,2,1
57,3,animal,0,0,animals,2,a_132.jpg,132,tbd,482.235459939073,486.938937087422,4.65376500134179,animal,0.73088825172772,0,2,1
58,3,tool,0,0,animals,2,t_253.jpg,253,tbd,489.491290600444,495.129014226598,5.58985348809444,tool,0.843021499062161,0,1,1
59,3,tool,0,0,animals,2,t_259.jpg,259,tbd,497.664517780145,503.018684453493,5.30978936461692,tool,1.03457336249721,0,1,1
60,3,animal,0,0,animals,2,a_133.jpg,133,tbd,505.570886901894,512.943255418745,7.33322691649417,animal,0.871351407516158,0,2,1
