trial,phase,object,toShock,seenBefore,shockedCategory,responseSide,filename,num,name,onsetFixationCross,onsetStimulus,interTrialTime,response,reactionTime,wasShocked,buttonPressed,isResponseCorrect
1,1,tool,0,0,animals,2,t_283.jpg,283,tbd,0.0181442991060976,5.03870127532537,4.97664536820324,tool,0.743105605074561,0,1,1
2,1,tool,0,0,animals,2,t_232.jpg,232,tbd,7.60749549420052,12.7116611251713,5.06513607512323,tool,1.60542158928365,0,1,1
3,1,animal,0,0,animals,2,a_169.jpg,169,tbd,15.2638196333328,19.550523926102,4.25501102739271,animal,1.08674105375121,0,2,1
4,1,tool,0,0,animals,2,t_300.jpg,300,tbd,22.1027071306025,29.9753991053503,7.83248035010446,tool,1.47713757753354,0,1,1
5,1,animal,0,0,animals,2,a_135.jpg,135,tbd,32.5277490903245,40.3504329024518,7.76820120390146,animal,0.911409874237506,0,2,1
6,1,animal,0,0,animals,2,a_170.jpg,170,tbd,42.9026741593862,50.6586704786696,7.72591733448844,animal,0.674439518505096,0,2,1
7,1,tool,0,0,animals,2,t_353.jpg,353,tbd,53.2110124453511,60.5000622488869,7.25276907771324,tool,0.891052393123573,0,1,1
8,1,tool,0,0,animals,2,t_285.jpg,285,tbd,63.0189342612312,68.4898376436995,5.43128962733779,tool,0.838719567294902,0,1,1
9,1,tool,0,0,animals,2,t_319.jpg,319,tbd,71.0253697423659,75.4619420059389,4.39169814476318,tool,0.763820381279402,0,1,1
10,1,animal,0,0,animals,2,a_117.jpg,117,tbd,78.014298084815,84.8362804567596,6.78138398344444,animal,0.694780963036465,0,2,1
11,1,tool,0,0,animals,2,t_347.jpg,347,tbd,87.3884222868746,92.9926942403963,5.55225543265729,tool,0.691601229172193,0,1,1
12,1,animal,0,0,animals,2,a_038.jpg,38,tbd,95.5283568768555,103.100815134429,7.52067123690876,animal,0.694686988654212,0,2,1
13,1,animal,0,0,animals,2,a_020.jpg,20,tbd,105.636488355034,110.54027943555,4.85849728147263,animal,0.983626139760418,0,2,1
14,1,tool,0,0,animals,2,t_252.jpg,252,tbd,113.092379891278,118.630121189747,5.49413685886884,tool,0.665858021708118,0,1,1
15,1,animal,0,0,animals,2,a_007.jpg,7,tbd,121.182239285718,126.102607062318,4.87771222795772,animal,0.58362177780964,0,2,1
16,1,animal,0,0,animals,2,a_066.jpg,66,tbd,128.655023759482,134.242660964484,5.54185253115864,animal,0.697786860328961,0,2,1
17,1,animal,0,0,animals,2,a_057.jpg,57,tbd,136.794853470205,144.450702926451,7.61721937861957,animal,0.579746056203476,0,2,1
18,1,tool,0,0,animals,2,t_224.jpg,224,tbd,146.98637871291,154.275260453046,7.2510975546371,tool,0.803738325286758,0,1,1
19,1,animal,0,0,animals,2,a_075.jpg,75,tbd,156.827632247774,162.348575545299,5.48101736698163,animal,0.619689338013814,0,2,1
20,1,animal,0,0,animals,2,a_001.jpg,1,tbd,164.900647455908,170.271605074103,5.32941239966219,animal,0.692871005889174,0,2,1
21,1,animal,0,0,animals,2,a_127.jpg,127,tbd,172.80711632521,179.212138855007,6.36888707846136,animal,1.0086143448525,0,2,1
22,1,tool,0,0,animals,2,t_203.jpg,203,tbd,181.764254705855,188.486249297677,6.67127590744673,tool,0.863705527265665,0,1,1
23,1,animal,0,0,animals,2,a_140.jpg,140,tbd,191.038368676574,195.108225319135,4.02948385073957,animal,0.627935028743195,0,2,1
24,1,tool,0,0,animals,2,t_297.jpg,297,tbd,197.660391204126,203.731825846547,6.03038552401283,tool,0.933595205190613,0,1,1
25,1,animal,0,0,animals,2,a_138.jpg,138,tbd,206.284024446169,210.770650416262,4.44868935990753,animal,0.89861524610842,0,2,1
26,1,tool,0,0,animals,2,t_215.jpg,215,tbd,213.306308883209,218.660357527299,5.30011479318199,tool,0.652132309515764,0,1,1
27,1,tool,0,0,animals,2,t_193.jpg,193,tbd,221.19596307352,225.715990361371,4.48241869219618,tool,0.749036575279206,0,1,1
28,1,tool,0,0,animals,2,t_219.jpg,219,tbd,228.268339704881,235.573977750843,7.26097214623988,tool,0.656317537191171,0,1,1
29,1,animal,0,0,animals,2,a_030.jpg,30,tbd,238.126210348022,244.347622972214,6.17060069804052,animal,0.595485321875458,0,2,1
30,1,tool,0,0,animals,2,t_313.jpg,313,tbd,246.883293306233,254.022237156059,7.10402213092152,tool,0.695580226378297,0,1,1
31,1,tool,0,0,animals,2,t_309.jpg,309,tbd,256.574404323976,262.946065627474,6.32328468631073,tool,0.796009654023692,0,1,1
32,1,animal,0,0,animals,2,a_012.jpg,12,tbd,265.498232153927,271.886587862037,6.34953214775391,animal,0.611675536288203,0,2,1
33,1,tool,0,0,animals,2,t_308.jpg,308,tbd,274.438769142148,280.009768391315,5.5360626518993,tool,0.867803195193119,0,1,1
34,1,animal,0,0,animals,2,a_172.jpg,172,tbd,282.561960255572,288.299757617939,5.69326301234304,animal,0.620056255052987,0,2,1
35,1,animal,0,0,animals,2,a_102.jpg,102,tbd,290.835274321484,296.022470327989,5.13835719930723,animal,0.607461442760723,0,2,1
36,1,tool,0,0,animals,2,t_336.jpg,336,tbd,298.558132002254,305.930471653252,7.31951801811485,tool,0.734811483862359,0,1,1
37,1,animal,0,0,animals,2,a_161.jpg,161,tbd,308.482770000426,312.736077144948,4.22115263030948,animal,0.95841246029795,0,2,1
38,1,animal,0,0,animals,2,a_005.jpg,5,tbd,315.271563058253,319.608088847806,4.2933986764063,animal,0.534492740719543,0,2,1
39,1,animal,0,0,animals,2,a_179.jpg,179,tbd,322.160447813267,327.347806110002,5.14774818189399,animal,1.21776218964806,0,2,1
40,1,tool,0,0,animals,2,t_350.jpg,350,tbd,329.883312870866,335.020469603777,5.09722975365319,tool,0.845602469121332,0,1,1
41,1,tool,0,0,animals,2,t_305.jpg,305,tbd,337.572836266799,345.345476635819,7.73847723133073,tool,0.60805094758598,0,1,1
42,1,tool,0,0,animals,2,t_323.jpg,323,tbd,347.897715326901,353.151703064045,5.20085292683371,tool,0.549846166182761,0,1,1
43,1,animal,0,0,animals,2,a_044.jpg,44,tbd,355.704052086824,363.593574456416,7.85556846421025,animal,0.609055799935049,0,2,1
44,1,tool,0,0,animals,2,t_273.jpg,273,tbd,366.129093084351,372.133781540031,5.9603738997016,tool,0.662021750098575,0,1,1
45,1,animal,0,0,animals,2,a_136.jpg,136,tbd,374.669267774068,380.173573115757,5.4769165312418,animal,0.589803880918225,0,2,1
46,1,tool,0,0,animals,2,t_318.jpg,318,tbd,382.725688004411,389.064056397458,6.29785069088514,tool,0.624503841242586,0,1,1
47,1,tool,0,0,animals,2,t_242.jpg,242,tbd,391.599531085154,397.554206246506,5.91768964803697,tool,0.871659672899114,0,1,1
48,1,animal,0,0,animals,2,a_064.jpg,64,tbd,400.1063195315,405.793977231257,5.63698620388722,animal,0.581042132917901,0,2,1
49,1,tool,0,0,animals,2,t_247.jpg,247,tbd,408.346349667449,415.985604466638,7.59706677816074,tool,0.759807065783207,0,1,1
50,1,animal,0,0,animals,2,a_084.jpg,84,tbd,418.521107699452,422.891064634809,4.33261082599989,animal,0.700465290578904,0,2,1
51,1,tool,0,0,animals,2,t_271.jpg,271,tbd,425.460121853662,430.430605558729,4.92242229132454,tool,0.857150092483607,0,1,1
52,1,animal,0,0,animals,2,a_150.jpg,150,tbd,432.982758614452,438.403675323321,5.39138797986378,animal,0.691013969468258,0,2,1
53,1,animal,0,0,animals,2,a_016.jpg,16,tbd,440.922517828351,445.742740666306,4.78033782574076,animal,0.744444339102301,0,2,1
54,1,animal,0,0,animals,2,a_103.jpg,103,tbd,448.295126252497,456.067884650775,7.72987521776413,animal,1.02762443218489,0,2,1
55,1,tool,0,0,animals,2,t_190.jpg,190,tbd,458.603375695787,466.476126364432,7.82490190105428,tool,0.866641505052939,0,1,1
56,1,tool,0,0,animals,2,t_216.jpg,216,tbd,469.028444917702,475.216629419241,6.13323140400491,tool,0.669371957980729,0,1,1
57,1,tool,0,0,animals,2,t_243.jpg,243,tbd,477.78534409666,482.138837233483,4.3249738402805,tool,0.79041352769309,0,1,1
58,1,animal,0,0,animals,2,a_069.jpg,69,tbd,484.691010816034,490.478861884921,5.74266622047749,animal,0.92066009658538,0,2,1
59,1,animal,0,0,animals,2,a_141.jpg,141,tbd,493.031064974785,497.234292433523,4.1679210014679,animal,0.566398165928149,0,2,1
60,1,tool,0,0,animals,2,t_259.jpg,259,tbd,499.786477562413,503.839527223544,4.00296728598336,tool,1.08551168922713,0,1,1
