trial,phase,object,toShock,seenBefore,shockedCategory,responseSide,filename,num,name,onsetFixationCross,onsetStimulus,interTrialTime,response,reactionTime,wasShocked,buttonPressed,isResponseCorrect
1,3,tool,0,0,animals,2,t_326.jpg,326,tbd,0.0320711458671212,7.68818263989579,7.57602673525491,tool,0.883210467773097,0,1,1
2,3,tool,0,0,animals,2,t_316.jpg,316,tbd,10.2739041145815,17.9631189666397,7.64673047655806,tool,1.74469030449472,0,1,1
3,3,tool,0,0,animals,2,t_356.jpg,356,tbd,20.5154865918557,26.8202317208234,6.24994464516023,tool,0.678513416483838,0,1,1
4,3,animal,0,0,animals,2,a_112.jpg,112,tbd,29.3559402219125,33.92597086141,4.54559799498256,animal,0.744265655752315,0,2,1
5,3,tool,0,0,animals,2,t_329.jpg,329,tbd,36.4782749817532,44.0341145273924,7.50855489545781,tool,0.897403806753573,0,1,1
6,3,animal,0,0,animals,2,a_101.jpg,101,tbd,46.5863561050583,51.3067310019032,4.67902693782244,animal,0.997993920968838,0,2,1
7,3,animal,0,0,animals,2,a_160.jpg,160,tbd,53.8589219039641,58.4124505778573,4.51665173623553,animal,0.542454548108253,0,2,1
8,3,tool,0,0,animals,2,t_278.jpg,278,tbd,60.964631857968,65.5180171648008,4.49804031181993,tool,0.743099796100068,0,1,1
9,3,animal,0,0,animals,2,a_125.jpg,125,tbd,68.0703142290477,74.2418363991437,6.12644711121695,animal,0.819530796612526,0,2,1
10,3,tool,0,0,animals,2,t_250.jpg,250,tbd,76.777293767329,84.7502769343682,7.92092834104628,tool,0.780261051328125,0,1,1
11,3,animal,0,0,animals,2,a_094.jpg,94,tbd,87.2856432147564,95.3085777749093,7.9877915858307,animal,0.692333423789933,0,2,1
12,3,animal,0,0,animals,2,a_147.jpg,147,tbd,97.8441413052797,103.348380255513,5.45911129078509,animal,1.98749797678101,0,2,1
13,3,tool,0,0,animals,2,t_358.jpg,358,tbd,105.867349770288,113.03966414763,7.14255101129865,tool,1.52081061222998,0,1,1
14,3,tool,0,0,animals,2,t_286.jpg,286,tbd,115.575039408505,121.463107259933,5.84947229374577,tool,2.10457562367537,0,1,1
15,3,animal,0,0,animals,2,a_026.jpg,26,tbd,123.998606002505,128.101760045761,4.0547070453147,animal,1.20208895889664,0,2,1
16,3,tool,0,0,animals,2,t_183.jpg,183,tbd,130.65393523197,135.274027596278,4.58370619869263,tool,0.925088082337425,0,1,1
17,3,tool,0,0,animals,2,t_248.jpg,248,tbd,137.809702741273,144.181345763066,6.32674240989506,tool,0.67999487610723,0,1,1
18,3,tool,0,0,animals,2,t_213.jpg,213,tbd,146.733485989522,151.804152800303,5.02789346618601,tool,0.696420186841351,0,1,1
19,3,animal,0,0,animals,2,a_131.jpg,131,tbd,154.339631336779,160.310972357624,5.93117007048288,animal,0.809820003574714,0,2,1
20,3,tool,0,0,animals,2,t_289.jpg,289,tbd,162.863153958466,170.869296290845,7.96365250144118,tool,0.673804754707817,0,1,1
21,3,tool,0,0,animals,2,t_255.jpg,255,tbd,173.421634408747,180.293683316479,6.83325194809249,tool,0.729666270466623,0,1,1
22,3,tool,0,0,animals,2,t_182.jpg,182,tbd,182.845908857562,187.699642062046,4.81918654467258,tool,0.864947043789471,0,1,1
23,3,animal,0,0,animals,2,a_070.jpg,70,tbd,190.25181436167,196.072906382476,5.77137651621065,animal,0.775889157815072,0,2,1
24,3,tool,0,0,animals,2,t_202.jpg,202,tbd,198.625224615013,204.896763431083,6.22647504800696,tool,1.09630074636425,0,1,1
25,3,tool,0,0,animals,2,t_324.jpg,324,tbd,207.448976784362,215.20498561218,7.72418952956077,tool,0.658362807302183,0,1,1
26,3,animal,0,0,animals,2,a_167.jpg,167,tbd,217.757243226431,223.194833813084,5.40701389088042,animal,0.890724248811239,0,2,1
27,3,animal,0,0,animals,2,a_009.jpg,9,tbd,225.747010923683,230.567391240893,4.78421156302193,animal,1.15305678277491,0,2,1
28,3,animal,0,0,animals,2,a_130.jpg,130,tbd,233.086273837383,237.706323544378,4.5885235018753,animal,0.650611684821342,0,2,1
29,3,tool,0,0,animals,2,t_254.jpg,254,tbd,240.275281015679,246.93039952443,6.61148915070244,tool,0.699549245098751,0,1,1
30,3,animal,0,0,animals,2,a_124.jpg,124,tbd,249.46606408528,255.270435080744,5.75803789237036,animal,1.17602373682712,0,2,1
31,3,animal,0,0,animals,2,a_107.jpg,107,tbd,257.822781858401,263.360252138602,5.49020083431173,animal,1.39045307017659,0,2,1
32,3,tool,0,0,animals,2,t_357.jpg,357,tbd,265.912614952843,273.051553029499,7.09838905393875,tool,0.819407635647622,0,1,1
33,3,animal,0,0,animals,2,a_142.jpg,142,tbd,275.603745535218,283.309629454085,7.67808160536201,animal,0.718610649499169,0,2,1
34,3,animal,0,0,animals,2,a_002.jpg,2,tbd,285.861983929301,293.367875930606,7.45709699289617,animal,0.774323666491,0,2,1
35,3,animal,0,0,animals,2,a_035.jpg,35,tbd,295.88669438076,303.592746683758,7.65406975054317,animal,0.690034098384785,0,2,1
36,3,tool,0,0,animals,2,t_181.jpg,181,tbd,306.128264028766,310.364681122354,4.18706173873703,tool,0.695314945475729,0,1,1
37,3,animal,0,0,animals,2,a_048.jpg,48,tbd,312.900366530763,320.472818694435,7.54075162423091,animal,0.644505274389303,0,2,1
38,3,animal,0,0,animals,2,a_051.jpg,51,tbd,323.025186319651,328.612855597821,5.55530770903898,animal,0.604810559631005,0,2,1
39,3,animal,0,0,animals,2,a_163.jpg,163,tbd,331.165022124275,338.32064081408,7.1131569343306,animal,1.01282776111202,0,2,1
40,3,tool,0,0,animals,2,t_201.jpg,201,tbd,340.872824660044,347.594740351873,6.68860171546766,tool,1.17425778820416,0,1,1
41,3,tool,0,0,animals,2,t_315.jpg,315,tbd,350.130275337125,358.003124791127,7.84160589469564,tool,0.818253322336204,0,1,1
42,3,tool,0,0,animals,2,t_269.jpg,269,tbd,360.555276884655,367.510610187412,6.91251116730981,tool,0.993980284741156,0,1,1
43,3,animal,0,0,animals,2,a_089.jpg,89,tbd,370.062831879713,375.767412345038,5.67283255021016,animal,0.803437122435753,0,2,1
44,3,animal,0,0,animals,2,a_025.jpg,25,tbd,378.302868109564,382.906306160721,4.57110009654374,animal,0.711746029379356,0,2,1
45,3,tool,0,0,animals,2,t_200.jpg,200,tbd,385.458527853024,392.81426643233,7.30869023443228,tool,0.721065529769476,0,1,1
46,3,tool,0,0,animals,2,t_310.jpg,310,tbd,395.366612889256,402.555587673652,7.16331444917662,tool,0.879685305891144,0,1,1
47,3,animal,0,0,animals,2,a_121.jpg,121,tbd,405.091094755247,409.511174033702,4.39006390121157,animal,0.947644179110284,0,2,1
48,3,animal,0,0,animals,2,a_086.jpg,86,tbd,412.063367501617,416.633571977684,4.51866929459739,animal,0.77360330314059,0,2,1
49,3,tool,0,0,animals,2,t_276.jpg,276,tbd,419.16904858977,426.174562929523,6.95817836995728,tool,0.552688454514282,0,1,1
50,3,animal,0,0,animals,2,a_149.jpg,149,tbd,428.72661174745,433.163510195142,4.39516646551451,animal,0.409972158682649,0,2,1
51,3,animal,0,0,animals,2,a_177.jpg,177,tbd,435.71569692769,440.202325463637,4.45209654228005,animal,0.544363543060172,0,2,1
52,3,animal,0,0,animals,2,a_018.jpg,18,tbd,442.737916576932,448.308850396837,5.51406933459644,animal,0.557046235833695,0,2,1
53,3,tool,0,0,animals,2,t_338.jpg,338,tbd,450.86119268425,457.432830189457,6.52092277755358,tool,0.47328074329107,0,1,1
54,3,tool,0,0,animals,2,t_320.jpg,320,tbd,459.968515597866,466.907121781381,6.88537423522784,tool,0.562287953659506,0,1,1
55,3,animal,0,0,animals,2,a_046.jpg,46,tbd,469.459454126112,474.396618299998,4.89619701969273,animal,0.552979037415753,0,2,1
56,3,animal,0,0,animals,2,a_152.jpg,152,tbd,476.932153605982,482.502989281992,5.53526488075141,animal,0.559871881923755,0,2,1
57,3,animal,0,0,animals,2,a_154.jpg,154,tbd,485.055320023065,491.026670024396,5.92793183259675,animal,1.01343458544761,0,2,1
58,3,tool,0,0,animals,2,t_212.jpg,212,tbd,493.578861247189,501.251551040962,7.63080808262081,tool,0.751829470932535,0,1,1
59,3,tool,0,0,animals,2,t_327.jpg,327,tbd,503.803721095464,511.693107795555,7.8564005373026,tool,0.697560708690617,0,1,1
60,3,tool,0,0,animals,2,t_239.jpg,239,tbd,514.228767224698,521.284306084387,7.01294120193374,tool,0.684642598865139,0,1,1
