trial,phase,object,toShock,seenBefore,shockedCategory,responseSide,filename,num,name,onsetFixationCross,onsetStimulus,interTrialTime,response,reactionTime,wasShocked,buttonPressed,isResponseCorrect
1,3,animal,0,0,animals,1,a_073.jpg,73,tbd,0.0144034459526665,4.26804627122829,4.17617476108931,animal,1.11798688440695,0,1,1
2,3,animal,0,0,animals,1,a_131.jpg,131,tbd,6.8369434664346,13.4922055532443,6.61250886506434,animal,0.711184869807767,0,1,1
3,3,animal,0,0,animals,1,a_024.jpg,24,tbd,16.0444024099793,20.2475500368146,4.15662790760401,animal,0.870106700651831,0,1,1
4,3,tool,0,0,animals,1,t_245.jpg,245,tbd,22.7832425240199,28.7545508748944,5.92918260117836,tool,0.617423834527926,0,2,1
5,3,tool,0,0,animals,1,t_256.jpg,256,tbd,31.3068474801416,36.2273697261444,4.88772789076697,tool,0.589952260448172,0,2,1
6,3,animal,0,0,animals,1,a_076.jpg,76,tbd,38.7795704316968,45.568120585473,6.74524886659006,animal,1.08146353379379,0,1,1
7,3,animal,0,0,animals,1,a_051.jpg,51,tbd,48.1371951470046,52.7241006370537,4.54548623839875,animal,1.12778565220833,0,1,1
8,3,tool,0,0,animals,1,t_301.jpg,301,tbd,55.2930167556115,59.3962003368138,4.06468973464566,tool,0.63991760505678,0,2,1
9,3,tool,0,0,animals,1,t_239.jpg,239,tbd,61.9483927032625,67.6362228395651,5.65775938178549,tool,1.02839957062179,0,2,1
10,3,tool,0,0,animals,1,t_200.jpg,200,tbd,70.1717568837962,77.1271256790619,6.91734983020902,tool,0.956679428382358,0,2,1
11,3,animal,0,0,animals,1,a_106.jpg,106,tbd,79.6627466424147,84.3496905885618,4.64356947036987,animal,0.911374359907313,0,1,1
12,3,tool,0,0,animals,1,t_346.jpg,346,tbd,86.9020109281814,93.7739784210717,6.82231805268315,tool,0.764458593516338,0,2,1
13,3,tool,0,0,animals,1,t_287.jpg,287,tbd,96.3263792651173,100.529649091898,4.16529233819202,tool,1.1930442718749,0,2,1
14,3,tool,0,0,animals,1,t_231.jpg,231,tbd,103.065186664212,109.85389109141,6.75641639317347,tool,1.29217793520183,0,2,1
15,3,animal,0,0,animals,1,a_017.jpg,17,tbd,112.389405891555,117.493276807359,5.05808182176444,animal,1.53108235656282,0,1,1
16,3,animal,0,0,animals,1,a_006.jpg,6,tbd,120.045643653519,126.167183206049,6.09260946280097,animal,0.654482170728897,0,1,1
17,3,tool,0,0,animals,1,t_330.jpg,330,tbd,128.719370440742,132.839250190864,4.08111597051559,tool,0.796643364965348,0,2,1
18,3,animal,0,0,animals,1,a_121.jpg,121,tbd,135.391445443925,139.64466008829,4.22024611440443,animal,1.00352049564617,0,1,1
19,3,animal,0,0,animals,1,a_120.jpg,120,tbd,142.19699870979,147.65111134735,5.40850807366346,animal,0.661355196004934,0,1,1
20,3,tool,0,0,animals,1,t_195.jpg,195,tbd,150.186791325899,156.475121615994,6.24743869038831,tool,0.621671325018724,0,2,1
21,3,tool,0,0,animals,1,t_191.jpg,191,tbd,159.010649887,164.981871318753,5.9363517437126,tool,0.564252104474235,0,2,1
22,3,tool,0,0,animals,1,t_258.jpg,258,tbd,167.534245221078,174.923284623665,7.35014892750015,tool,0.99723666013324,0,2,1
23,3,animal,0,0,animals,1,a_093.jpg,93,tbd,177.475651469826,183.230223303347,5.72992344692434,animal,0.728548167038298,0,1,1
24,3,animal,0,0,animals,1,a_155.jpg,155,tbd,185.782415669796,191.003198576942,5.18687675244806,animal,0.627859902306227,0,1,1
25,3,animal,0,0,animals,1,a_071.jpg,71,tbd,193.538763090976,199.910401670365,6.34436891229196,animal,0.647610107656874,0,1,1
26,3,tool,0,0,animals,1,t_334.jpg,334,tbd,202.445975164972,210.201977154811,7.71937964906033,tool,0.625834462266539,0,2,1
27,3,tool,0,0,animals,1,t_233.jpg,233,tbd,212.754352340075,220.610448273126,7.8037411874005,tool,0.589754367098067,0,2,1
28,3,animal,0,0,animals,1,a_078.jpg,78,tbd,223.162832118229,230.501979303734,7.30219462189407,animal,0.664611295337636,0,1,1
29,3,animal,0,0,animals,1,a_138.jpg,138,tbd,233.054208233945,238.424916041046,5.34817785733427,animal,1.06398092323116,0,1,1
30,3,animal,0,0,animals,1,a_018.jpg,18,tbd,240.977292829985,247.132159290462,6.11244310418657,animal,0.940057349193467,0,1,1
31,3,tool,0,0,animals,1,t_217.jpg,217,tbd,249.68434428001,257.023531878095,7.31666447621073,tool,0.606013374533177,0,2,1
32,3,tool,0,0,animals,1,t_213.jpg,213,tbd,259.559072337022,264.829883773526,5.244302504101,tool,0.663181139021162,0,2,1
33,3,animal,0,0,animals,1,a_167.jpg,167,tbd,267.365416214083,274.888057682971,7.48262934514271,animal,1.23925156724408,0,1,1
34,3,tool,0,0,animals,1,t_288.jpg,288,tbd,277.440226635782,282.610835720722,5.13999440028386,tool,0.570704325739371,0,2,1
35,3,animal,0,0,animals,1,a_112.jpg,112,tbd,285.146499021064,289.433232372764,4.25191341718182,animal,0.603538585087335,0,1,1
36,3,animal,0,0,animals,1,a_015.jpg,15,tbd,291.985457133424,299.441182746116,7.41280995184441,animal,0.613006354611116,0,1,1
37,3,tool,0,0,animals,1,t_336.jpg,336,tbd,301.97691757031,309.499543323195,7.48637963561335,tool,0.586028712069037,0,2,1
38,3,tool,0,0,animals,1,t_286.jpg,286,tbd,312.035086027265,318.67348740822,6.60244977964486,tool,1.01443830704238,0,2,1
39,3,tool,0,0,animals,1,t_235.jpg,235,tbd,321.225850084829,328.331523530011,7.07382083370579,tool,0.638762959903033,0,2,1
40,3,animal,0,0,animals,1,a_136.jpg,136,tbd,330.867038971626,337.672264767296,6.74834617748046,animal,1.11237627116543,0,1,1
41,3,tool,0,0,animals,1,t_345.jpg,345,tbd,340.24131655666,346.846581866853,6.55968545424084,tool,0.998401248064965,0,2,1
42,3,tool,0,0,animals,1,t_341.jpg,341,tbd,349.398777119915,355.403362664848,5.95845291317682,tool,0.853937498951382,0,2,1
43,3,tool,0,0,animals,1,t_313.jpg,313,tbd,357.955727907335,362.742825453361,4.74607167396017,tool,0.578745146294295,0,2,1
44,3,animal,0,0,animals,1,a_036.jpg,36,tbd,365.2950306492,370.182047337992,4.86032246085422,animal,0.912808044306075,0,1,1
45,3,tool,0,0,animals,1,t_335.jpg,335,tbd,372.734429258686,378.172019886304,5.40129378297693,tool,0.706183011150188,0,2,1
46,3,animal,0,0,animals,1,a_156.jpg,156,tbd,380.724232459042,385.99490213078,5.24216354082873,animal,0.826568880730974,0,1,1
47,3,animal,0,0,animals,1,a_068.jpg,68,tbd,388.547268014736,394.401739746938,5.79708510591378,animal,0.754033430719119,0,1,1
48,3,tool,0,0,animals,1,t_250.jpg,250,tbd,396.95410402722,402.641756797198,5.66663145001549,tool,1.21134796343586,0,2,1
49,3,animal,0,0,animals,1,a_008.jpg,8,tbd,405.19412171895,412.783346442084,7.54820693525049,animal,0.778119649355631,0,1,1
50,3,tool,0,0,animals,1,t_312.jpg,312,tbd,415.335709118692,422.55812713167,7.1855951758888,tool,0.628705038412136,0,2,1
51,3,tool,0,0,animals,1,t_299.jpg,299,tbd,425.11032430914,430.781470464444,5.64968168345831,tool,0.613679256147861,0,2,1
52,3,animal,0,0,animals,1,a_083.jpg,83,tbd,433.333662510158,441.290023658786,7.90535854728046,animal,0.729520314110687,0,1,1
53,3,tool,0,0,animals,1,t_220.jpg,220,tbd,443.842234948585,449.663329417482,5.78231365475812,tool,0.878537534681072,0,2,1
54,3,animal,0,0,animals,1,a_169.jpg,169,tbd,452.215712941851,458.837620216789,6.58164690929226,animal,0.915799858192258,0,1,1
55,3,tool,0,0,animals,1,t_305.jpg,305,tbd,461.389828619975,466.660484500118,5.22173595836651,tool,0.92602616543536,0,2,1
56,3,animal,0,0,animals,1,a_150.jpg,150,tbd,469.212850384074,473.649663871356,4.40762029976233,animal,0.966105823121325,0,1,1
57,3,animal,0,0,animals,1,a_117.jpg,117,tbd,476.201854634131,483.340693016203,7.10802048594842,animal,0.552435915002661,0,1,1
58,3,animal,0,0,animals,1,a_000.jpg,0,tbd,485.893057617221,493.148804462553,7.20944026053579,animal,0.853881691101833,0,1,1
59,3,tool,0,0,animals,1,t_324.jpg,324,tbd,495.701057768607,500.237781418081,4.48411340221696,tool,0.602966394266787,0,2,1
60,3,animal,0,0,animals,1,a_142.jpg,142,tbd,502.773507582437,509.66213917077,6.8535567906688,animal,0.68100950166081,0,1,1
