trial,phase,object,toShock,seenBefore,shockedCategory,responseSide,filename,num,name,onsetFixationCross,onsetStimulus,interTrialTime,response,reactionTime,wasShocked,buttonPressed,isResponseCorrect
1,1,animal,0,0,animals,1,a_110.jpg,110,tbd,0.0183568829961587,7.50765585740737,7.42219263611221,animal,0.757473886595108,0,1,1
2,1,animal,0,0,animals,1,a_157.jpg,157,tbd,10.076547638615,16.9987358771177,6.8851858556557,animal,0.67459321822389,0,1,1
3,1,animal,0,0,animals,1,a_138.jpg,138,tbd,19.5509522890352,24.588231719099,4.99252856781435,animal,0.566434087129892,0,1,1
4,1,tool,0,0,animals,1,t_337.jpg,337,tbd,27.1404692995711,32.4444667567732,5.26938061292426,tool,0.720526097225957,0,2,1
5,1,animal,0,0,animals,1,a_129.jpg,129,tbd,34.9802050518483,42.3692314650689,7.34231832151387,animal,0.601153725656332,0,1,1
6,1,tool,0,0,animals,1,t_355.jpg,355,tbd,44.9216204327968,49.5252719444834,4.56858872761095,tool,0.689437828201335,0,2,1
7,1,animal,0,0,animals,1,a_055.jpg,55,tbd,52.0775011858204,56.6308651900472,4.51307016995013,animal,0.621125295641832,0,1,1
8,1,animal,0,0,animals,1,a_012.jpg,12,tbd,59.1666182389599,66.9728618082154,7.77664169362479,animal,0.739484142424772,0,1,1
9,1,tool,0,0,animals,1,t_342.jpg,342,tbd,69.525037165964,74.9291301382473,5.36746782699607,tool,0.717564423859585,0,2,1
10,1,tool,0,0,animals,1,t_270.jpg,270,tbd,77.4815396330523,85.0708699754177,7.5431225491878,tool,0.610256525294972,0,2,1
11,1,animal,0,0,animals,1,a_010.jpg,10,tbd,87.623122309742,95.2459278361348,7.58119929856458,animal,0.622600359085482,0,1,1
12,1,animal,0,0,animals,1,a_162.jpg,162,tbd,97.7814294282725,103.252449996406,5.42515599085275,animal,0.555331179741188,0,1,1
13,1,animal,0,0,animals,1,a_098.jpg,98,tbd,105.804646522709,112.24295718217,6.38920593669979,animal,0.512260225310456,0,1,1
14,1,tool,0,0,animals,1,t_214.jpg,214,tbd,114.795334603405,118.865141764283,4.0284224016135,tool,0.552377845495357,0,2,1
15,1,tool,0,0,animals,1,t_279.jpg,279,tbd,121.400699485152,129.373764101852,7.94700206990148,tool,0.675163165549748,0,2,1
16,1,animal,0,0,animals,1,a_059.jpg,59,tbd,131.925937855922,136.362809695071,4.40075673342358,animal,1.32742505779606,0,1,1
17,1,animal,0,0,animals,1,a_106.jpg,106,tbd,138.898295891893,146.921373145567,7.99256728517079,animal,0.518189024543972,0,1,1
18,1,tool,0,0,animals,1,t_192.jpg,192,tbd,149.473568709669,154.19380058875,4.68172929988878,tool,0.633141016820446,0,2,1
19,1,animal,0,0,animals,1,a_171.jpg,171,tbd,156.762848247497,164.051971907786,7.24368265925844,animal,0.565364754351322,0,1,1
20,1,animal,0,0,animals,1,a_178.jpg,178,tbd,166.60423418491,173.809802669683,7.14970456502183,animal,0.615946697173058,0,1,1
21,1,tool,0,0,animals,1,t_316.jpg,316,tbd,176.362197410635,183.417837676054,7.01254724323275,tool,0.660451981631923,0,2,1
22,1,tool,0,0,animals,1,t_195.jpg,195,tbd,185.970020410721,192.291746853967,6.28718197990341,tool,0.549734983404051,0,2,1
23,1,animal,0,0,animals,1,a_025.jpg,25,tbd,194.843961982944,199.247402899578,4.34963264341968,animal,0.633373229473364,0,1,1
24,1,tool,0,0,animals,1,t_312.jpg,312,tbd,201.799635669013,209.438859013957,7.59615241281035,tool,0.606325909408042,0,2,1
25,1,animal,0,0,animals,1,a_120.jpg,120,tbd,211.974618798326,219.080164254265,7.0523243991402,animal,0.502315173740499,0,1,1
26,1,animal,0,0,animals,1,a_170.jpg,170,tbd,221.615790933312,226.603086592615,4.95986119497591,animal,0.548810623135068,0,1,1
27,1,tool,0,0,animals,1,t_229.jpg,229,tbd,229.155295306875,235.210100697281,6.0145716711006,tool,0.608126519568032,0,2,1
28,1,animal,0,0,animals,1,a_135.jpg,135,tbd,237.745622175033,245.534991839595,7.74368402513336,animal,0.698648395016789,0,1,1
29,1,tool,0,0,animals,1,t_315.jpg,315,tbd,248.087406786901,253.42492850071,5.29777708791356,tool,0.633036777726375,0,2,1
30,1,animal,0,0,animals,1,a_083.jpg,83,tbd,255.977183400901,263.382876844291,7.36910210240952,animal,0.583509413845604,0,1,1
31,1,tool,0,0,animals,1,t_309.jpg,309,tbd,265.951998913733,273.491132196097,7.48708158750918,tool,0.698582323471783,0,2,1
32,1,tool,0,0,animals,1,t_287.jpg,287,tbd,276.043538483544,281.597732551731,5.5135552963031,tool,0.656386977469083,0,2,1
33,1,animal,0,0,animals,1,a_161.jpg,161,tbd,284.133463149134,291.973110699109,7.78975392732847,animal,0.817450819275109,0,1,1
34,1,animal,0,0,animals,1,a_029.jpg,29,tbd,294.525291509359,298.778417720139,4.203485875774,animal,0.753392204191186,0,1,1
35,1,tool,0,0,animals,1,t_290.jpg,290,tbd,301.314156335939,305.684240420014,4.31677576142535,tool,0.728798832889879,0,2,1
36,1,tool,0,0,animals,1,t_272.jpg,272,tbd,308.236466133269,314.541490906893,6.2678876203154,tool,0.676965700127766,0,2,1
37,1,tool,0,0,animals,1,t_225.jpg,225,tbd,317.093687753935,323.682084113971,6.5502137899787,tool,0.811736912946799,0,2,1
38,1,animal,0,0,animals,1,a_118.jpg,118,tbd,326.217787769579,333.156649132216,6.91193669300935,animal,0.811562753471662,0,1,1
39,1,tool,0,0,animals,1,t_273.jpg,273,tbd,335.70889857992,340.545842328007,4.79147114727617,tool,0.674620160018094,0,2,1
40,1,tool,0,0,animals,1,t_220.jpg,220,tbd,343.098286141525,348.319049479644,5.1891332596898,tool,0.586770975074614,0,2,1
41,1,tool,0,0,animals,1,t_251.jpg,251,tbd,350.854587956375,358.210254971156,7.31348912894178,tool,0.577929254286573,0,2,1
42,1,animal,0,0,animals,1,a_049.jpg,49,tbd,360.746024698325,366.350214404505,5.56437880712245,animal,0.607349697718746,0,1,1
43,1,tool,0,0,animals,1,t_213.jpg,213,tbd,368.902618767534,374.040013277569,5.09709204186327,tool,0.684867986070458,0,2,1
44,1,animal,0,0,animals,1,a_125.jpg,125,tbd,376.592258234959,383.147426377429,6.51279182061277,animal,0.600790332129691,0,1,1
45,1,tool,0,0,animals,1,t_329.jpg,329,tbd,385.699665882319,391.704432014682,5.96632807385211,tool,0.636178704560734,0,2,1
46,1,tool,0,0,animals,1,t_358.jpg,358,tbd,394.256636559381,400.111107230026,5.81236012537034,tool,0.684810895123519,0,2,1
47,1,tool,0,0,animals,1,t_277.jpg,277,tbd,402.663503253934,410.45305605857,7.74589713904915,tool,0.732363489369163,0,2,1
48,1,animal,0,0,animals,1,a_043.jpg,43,tbd,413.00525899959,420.944976085055,7.88633714448244,animal,0.681733115430688,0,1,1
49,1,animal,0,0,animals,1,a_032.jpg,32,tbd,423.497179667538,429.085053228395,5.55065207129998,animal,0.6730475929362,0,1,1
50,1,tool,0,0,animals,1,t_305.jpg,305,tbd,431.620468863373,438.008880747017,6.35835478383508,tool,0.759587855514837,0,2,1
51,1,animal,0,0,animals,1,a_036.jpg,36,tbd,440.561099083337,445.515041758888,4.90357658259669,animal,0.585745583084645,0,1,1
52,1,animal,0,0,animals,1,a_062.jpg,62,tbd,448.050581839314,452.454137900058,4.36768962362107,animal,0.582974105971516,0,1,1
53,1,animal,0,0,animals,1,a_006.jpg,6,tbd,455.006211263855,462.52889369191,7.47949866036328,animal,0.5325964717631,0,1,1
54,1,tool,0,0,animals,1,t_191.jpg,191,tbd,465.08111651853,470.201688120855,5.07442707611171,tool,0.553015468045487,0,2,1
55,1,tool,0,0,animals,1,t_216.jpg,216,tbd,472.737354571131,477.574510966981,4.79642341556096,tool,0.670581776939798,0,2,1
56,1,animal,0,0,animals,1,a_122.jpg,122,tbd,480.110030199576,485.297497644904,5.1491446389477,animal,0.688844146439806,0,1,1
57,1,tool,0,0,animals,1,t_266.jpg,266,tbd,487.849688397968,494.388024652129,6.48921420681145,tool,0.705725107312901,0,2,1
58,1,animal,0,0,animals,1,a_089.jpg,89,tbd,496.923727666275,501.093676207442,4.13269384579221,animal,0.655367358718649,0,1,1
59,1,tool,0,0,animals,1,t_304.jpg,304,tbd,503.645934315005,510.101008866812,6.42283497298335,tool,0.728398234015913,0,2,1
60,1,tool,0,0,animals,1,t_206.jpg,206,tbd,512.653285256296,519.40862807144,6.71719613892145,tool,0.689106828955119,0,2,1
