trial,phase,object,toShock,seenBefore,shockedCategory,responseSide,filename,num,name,onsetFixationCross,onsetStimulus,interTrialTime,response,reactionTime,wasShocked,buttonPressed,isResponseCorrect
1,2,animal,1,0,animals,2,a_085.jpg,85,tbd,0.0287998123098987,9.993454946567,9.86155959954197,0,0.822743669004922,1,2,0
2,2,tool,0,0,animals,2,t_185.jpg,185,tbd,14.7762074577754,22.3247445455245,7.49256951953118,1,1.25296418832886,0,1,0
3,2,animal,1,0,animals,2,a_127.jpg,127,tbd,26.8907351633338,33.622607284321,6.68055152416006,0,0.942490081724827,1,2,0
4,2,animal,1,0,animals,2,a_174.jpg,174,tbd,38.3719983656592,44.5540754694835,6.13253686168961,1,3.80571960541147,1,1,1
5,2,animal,1,0,animals,2,a_131.jpg,131,tbd,49.303361990651,55.7188013582609,6.37330738100759,0,1.07436868159357,1,2,0
6,2,tool,0,0,animals,2,t_263.jpg,263,tbd,60.4680339956599,67.3666164035071,6.84885625599198,0,0.966964538573393,0,2,1
7,2,tool,0,0,animals,2,t_300.jpg,300,tbd,71.915941541376,79.5145170854576,7.55062558459261,0,0.798670453792511,0,2,1
8,2,tool,0,0,animals,2,t_247.jpg,247,tbd,84.0804124444617,91.1623603555354,7.02831880075037,0,0.620340196323923,0,2,1
9,2,animal,1,0,animals,2,a_037.jpg,37,tbd,95.7283314084048,104.64327170968,8.853587240316,1,0.763035321318057,1,1,1
10,2,tool,0,0,animals,2,t_352.jpg,352,tbd,109.392518138757,116.741106672676,7.29683213378046,0,1.17574489870958,0,2,1
11,2,animal,1,0,animals,2,a_050.jpg,50,tbd,121.29040583087,130.855222873024,9.51919766891579,1,0.669181663219661,1,1,1
12,2,tool,0,0,animals,2,t_288.jpg,288,tbd,135.621174232659,142.803087760756,7.14442911960523,0,1.49990965218149,0,2,1
13,2,tool,0,0,animals,2,t_255.jpg,255,tbd,147.369056568469,154.484325817322,7.06342029126321,0,0.991301078632659,0,2,1
14,2,animal,0,0,animals,2,a_068.jpg,68,tbd,159.033573016168,169.048343904307,9.96109550603342,1,1.03577507362024,0,1,0
15,2,animal,0,0,animals,2,a_049.jpg,49,tbd,173.614299561815,181.646065647242,7.98351412009924,1,0.926629330213018,0,1,0
16,2,animal,1,0,animals,2,a_151.jpg,151,tbd,186.195386294797,192.694122912859,6.45652594173947,1,1.150989155758,1,1,1
17,2,tool,0,0,animals,2,t_278.jpg,278,tbd,197.460019105778,206.391517440192,8.88409429002082,0,0.788178834963674,0,2,1
18,2,tool,0,0,animals,2,t_259.jpg,259,tbd,210.940886839729,217.70625285485,6.70583611453373,0,0.572939799508731,0,2,1
19,2,animal,1,0,animals,2,a_115.jpg,115,tbd,222.255533089578,231.020516465794,8.69608744609648,1,1.34635341965759,1,1,1
20,2,tool,0,0,animals,2,t_249.jpg,249,tbd,235.76979047823,245.73454407866,9.89940437262583,0,1.39090118409058,0,2,1
21,2,tool,0,0,animals,2,t_191.jpg,191,tbd,250.283831690333,259.69862509419,9.36318585209888,0,0.871635491565485,0,2,1
22,2,tool,0,0,animals,2,t_269.jpg,269,tbd,264.247988720464,273.512897365025,9.20433361071064,0,0.63473101145064,0,2,1
23,2,animal,0,0,animals,2,a_103.jpg,103,tbd,278.078812288968,287.060464865671,8.92898447088224,1,1.0877854193036,0,1,0
24,2,animal,1,0,animals,2,a_059.jpg,59,tbd,291.609737081981,300.541396746965,8.87639784226443,0,0.952513745680335,1,2,0
25,2,animal,1,0,animals,2,a_082.jpg,82,tbd,305.307273054208,314.072245525375,8.69918712168482,0,1.76935960795208,1,2,0
26,2,tool,0,0,animals,2,t_223.jpg,223,tbd,318.838193036169,326.969904852944,8.06997316308456,0,1.12011086956954,0,2,1
27,2,animal,1,0,animals,2,a_166.jpg,166,tbd,331.535887452335,340.200881156274,8.61337869726482,1,1.46878151208875,1,1,1
28,2,animal,0,0,animals,2,a_055.jpg,55,tbd,344.966764519724,354.331665723193,9.31180322451312,1,1.21652240300546,0,1,0
29,2,tool,0,0,animals,2,t_287.jpg,287,tbd,358.880973862015,368.295663347175,9.36986424416626,0,0.890201657305624,0,2,1
30,2,animal,1,0,animals,2,a_140.jpg,140,tbd,372.845126081096,379.327192408167,6.4374135921405,1,1.63019194539766,1,1,1
31,2,animal,1,0,animals,2,a_141.jpg,141,tbd,384.07644910082,392.491478887639,8.37213901910082,1,1.10934983189645,1,1,1
32,2,animal,1,0,animals,2,a_149.jpg,149,tbd,397.257380853819,404.089375111349,6.78231199510644,1,0.951088070962214,1,1,1
33,2,tool,0,0,animals,2,t_343.jpg,343,tbd,408.85532294288,415.937077770448,7.03309754590861,0,0.799738827804958,0,2,1
34,2,tool,0,0,animals,2,t_290.jpg,290,tbd,420.503197645156,428.318392354796,7.77048190799605,0,0.665984559600929,0,2,1
35,2,tool,0,0,animals,2,t_229.jpg,229,tbd,432.867616139862,439.133093450625,6.2254834365944,0,1.18988906729874,0,2,1
36,2,animal,1,0,animals,2,a_163.jpg,163,tbd,443.682357648518,450.181108699732,6.43226362067917,1,1.42036919092379,1,1,1
37,2,animal,1,0,animals,2,a_001.jpg,1,tbd,454.946983082554,463.545191062356,8.54957000070251,1,1.08780017319259,1,1,1
38,2,animal,0,0,animals,2,a_167.jpg,167,tbd,468.294569314225,474.44332700469,6.11134237949347,1,1.02418493152709,0,1,0
39,2,tool,0,0,animals,2,t_211.jpg,211,tbd,478.9926402753,486.941155617099,7.89030680412849,0,0.835844801782514,0,2,1
40,2,tool,0,0,animals,2,t_319.jpg,319,tbd,491.50710902945,499.888837684902,8.34320218334426,0,0.658787869090702,0,2,1
41,2,animal,1,0,animals,2,a_118.jpg,118,tbd,504.438114070789,511.73667537416,7.24851885491302,1,0.886462508630757,1,1,1
42,2,animal,1,0,animals,2,a_054.jpg,54,tbd,516.502599471175,523.367902237015,6.81050031925199,1,0.72773760387372,1,1,1
43,2,tool,0,0,animals,2,t_243.jpg,243,tbd,528.133801958038,536.848821930314,8.67220544573642,0,1.05544457367478,0,2,1
44,2,tool,0,0,animals,2,t_196.jpg,196,tbd,541.398147068183,548.280136482588,6.8391696619667,0,0.781607901792995,0,2,1
45,2,tool,0,0,animals,2,t_275.jpg,275,tbd,552.84605750053,561.177820186148,8.2927037038227,0,1.96156333221825,0,2,1
46,2,animal,1,0,animals,2,a_005.jpg,5,tbd,565.727081818146,574.22542521299,8.44382224944123,1,1.11948960254449,1,1,1
47,2,animal,0,0,animals,2,a_020.jpg,20,tbd,578.991361498,588.089594816001,9.04872078556896,1,1.66091178764691,0,1,0
48,2,animal,0,0,animals,2,a_124.jpg,124,tbd,592.63889846451,600.937324096249,8.24928831248552,1,0.781742931952067,0,1,0
49,2,tool,0,0,animals,2,t_189.jpg,189,tbd,605.503243510507,615.117974242409,9.57709910507167,0,1.51568284256882,0,2,1
50,2,animal,0,0,animals,2,a_139.jpg,139,tbd,619.667359999517,627.349180834703,7.62708453487172,1,0.812988461683744,0,1,0
51,2,tool,0,0,animals,2,t_329.jpg,329,tbd,631.898495708997,641.029915976093,9.09016903076917,0,0.934848208647963,0,2,1
52,2,tool,0,0,animals,2,t_355.jpg,355,tbd,645.596026228699,652.344701104943,6.68609467298822,0,0.981635356856259,0,2,1
53,2,tool,0,0,animals,2,t_216.jpg,216,tbd,656.894010205976,666.942097941581,9.99252862096056,0,1.14787480221275,0,2,1
54,2,animal,0,0,animals,2,a_142.jpg,142,tbd,671.491355404002,680.339740270104,8.79830861175163,1,1.09375080154769,0,1,0
55,2,tool,0,0,animals,2,t_203.jpg,203,tbd,684.888967262536,691.171084073567,6.23695825062186,0,1.1399564540834,0,2,1
56,2,tool,0,0,animals,2,t_233.jpg,233,tbd,695.720355648403,702.269059519246,6.48687338468475,0,1.40947408530201,0,2,1
57,2,tool,0,0,animals,2,t_199.jpg,199,tbd,706.835020950015,713.183746117776,6.29725489123423,0,0.897255619975567,0,2,1
58,2,animal,0,0,animals,2,a_003.jpg,3,tbd,717.733072217854,724.148480153266,6.35607376478003,1,0.738919448122033,0,1,0
59,2,animal,1,0,animals,2,a_074.jpg,74,tbd,728.697708428645,737.462736387265,8.71679257831098,1,0.71434588362763,1,1,1
60,2,tool,0,0,animals,2,t_306.jpg,306,tbd,742.228669785644,751.160213985409,8.87662226707498,0,0.662370818983163,0,2,1
