trial,phase,object,toShock,seenBefore,shockedCategory,responseSide,filename,num,name,onsetFixationCross,onsetStimulus,interTrialTime,response,reactionTime,wasShocked,buttonPressed,isResponseCorrect
1,1,tool,0,0,tools,1,t_194.jpg,194,tbd,0.0392382375796387,5.58781160703597,5.36486721441762,tool,1.58773702855524,0,2,1
2,1,animal,0,0,tools,1,a_134.jpg,134,tbd,8.20418733265115,15.1861753623034,6.91575081755332,animal,0.772611579170416,0,1,1
3,1,animal,0,0,tools,1,a_028.jpg,28,tbd,17.7357211902097,24.700961573792,6.91268443054246,animal,0.841150976727022,0,1,1
4,1,tool,0,0,tools,1,t_183.jpg,183,tbd,27.2505709065706,31.6996334239102,4.36534867341503,tool,0.711602961430799,0,2,1
5,1,animal,0,0,tools,1,a_176.jpg,176,tbd,34.2658438283818,41.2476945848755,6.91196711034642,animal,0.663841203487664,0,1,1
6,1,animal,0,0,tools,1,a_162.jpg,162,tbd,43.8139870966568,48.0297372030595,4.15537165658999,animal,0.669980328550764,0,1,1
7,1,tool,0,0,tools,1,t_206.jpg,206,tbd,50.5959931514294,57.9278378621311,7.26886798710532,tool,0.724160568849356,0,2,1
8,1,tool,0,0,tools,1,t_198.jpg,198,tbd,60.477390104671,67.3259669059562,6.77503812979728,tool,0.864226658819234,0,2,1
9,1,tool,0,0,tools,1,t_212.jpg,212,tbd,69.8922254201796,74.1746476243054,4.22550259972462,tool,0.825810059800006,0,2,1
10,1,animal,0,0,tools,1,a_172.jpg,172,tbd,76.7408830458478,81.1899253570916,4.38458152120502,animal,0.565725854905168,0,1,1
11,1,animal,0,0,tools,1,a_033.jpg,33,tbd,83.7561864371683,90.3714360738595,6.55828334808139,animal,0.717523026757362,0,1,1
12,1,animal,0,0,tools,1,a_108.jpg,108,tbd,92.9377247368607,98.5030374133632,5.5163353701497,animal,0.793043470034263,0,1,1
13,1,tool,0,0,tools,1,t_277.jpg,277,tbd,101.05282026198,106.30162561666,5.19952896731801,tool,0.67465884154899,0,2,1
14,1,tool,0,0,tools,1,t_345.jpg,345,tbd,108.851267984801,113.616914799567,4.71150474635762,tool,0.683654402943148,0,2,1
15,1,animal,0,0,tools,1,a_101.jpg,101,tbd,116.183154711353,124.048203329465,7.80209905311677,animal,0.6415740859577,0,1,1
16,1,tool,0,0,tools,1,t_315.jpg,315,tbd,126.597797908586,131.663375349089,5.00731614434823,tool,0.63468893900972,0,2,1
17,1,animal,0,0,tools,1,a_029.jpg,29,tbd,134.229676520626,140.161722779115,5.8703364645408,animal,0.637585787532316,0,1,1
18,1,tool,0,0,tools,1,t_268.jpg,268,tbd,142.711233647268,148.010184437727,5.24294849609534,tool,0.62834005542868,0,2,1
19,1,animal,0,0,tools,1,a_141.jpg,141,tbd,150.559774205873,157.691563173409,7.07143509294169,animal,0.692346231437568,0,1,1
20,1,tool,0,0,tools,1,t_326.jpg,326,tbd,160.241212597648,165.639897790204,5.34724277617403,tool,0.745057199915664,0,2,1
21,1,tool,0,0,tools,1,t_319.jpg,319,tbd,168.189660753457,174.838261673764,6.58824044571718,tool,0.633945803710048,0,2,1
22,1,tool,0,0,tools,1,t_267.jpg,267,tbd,177.404491642868,183.453235801943,5.99439948285109,tool,0.546246857858478,0,2,1
23,1,animal,0,0,tools,1,a_047.jpg,47,tbd,186.00283519204,192.818155004823,6.74593093126054,animal,0.774638282648084,0,1,1
24,1,animal,0,0,tools,1,a_073.jpg,73,tbd,195.367679664438,201.24971487372,5.81992483421383,animal,0.757254625658788,0,1,1
25,1,animal,0,0,tools,1,a_010.jpg,10,tbd,203.799351789424,210.647911912661,6.78802858241643,animal,0.561379619925901,0,1,1
26,1,tool,0,0,tools,1,t_312.jpg,312,tbd,213.21417908664,220.56272525805,7.28448373956234,tool,0.577835400168169,0,2,1
27,1,tool,0,0,tools,1,t_261.jpg,261,tbd,223.1122755762,228.277800063903,5.11320131967367,tool,0.87197297032435,0,2,1
28,1,animal,0,0,tools,1,a_014.jpg,14,tbd,230.827398812536,236.576151727586,5.69439193524091,animal,0.779867491938603,0,1,1
29,1,animal,0,0,tools,1,a_024.jpg,24,tbd,239.142436862539,245.524458119993,6.32919759148765,animal,0.660825042780289,0,1,1
30,1,tool,0,0,tools,1,t_253.jpg,253,tbd,248.074000099119,252.989707644428,4.8574884429411,tool,0.73377193506667,0,2,1
31,1,animal,0,0,tools,1,a_094.jpg,94,tbd,255.555886296464,260.154879648017,4.5362075578855,animal,0.658796735643591,0,1,1
32,1,animal,0,0,tools,1,a_133.jpg,133,tbd,262.704492188112,268.686529289711,5.93041287385682,animal,0.606364162262707,0,1,1
33,1,animal,0,0,tools,1,a_009.jpg,9,tbd,271.236156583464,277.034908359916,5.73750851024089,animal,0.669182348133745,0,1,1
34,1,tool,0,0,tools,1,t_257.jpg,257,tbd,279.601138970484,284.283616853629,4.62224761696467,tool,0.696715559097356,0,2,1
35,1,tool,0,0,tools,1,t_223.jpg,223,tbd,286.849759262984,292.465323537453,5.55725530913459,tool,0.73320391926336,0,2,1
36,1,tool,0,0,tools,1,t_282.jpg,282,tbd,295.014836650728,301.796784973798,6.72193086242615,tool,0.697150791985678,0,2,1
37,1,animal,0,0,tools,1,a_074.jpg,74,tbd,304.36300115144,309.461867332883,5.03814345422176,animal,0.728214617268804,0,1,1
38,1,tool,0,0,tools,1,t_321.jpg,321,tbd,312.02815727881,318.293511746651,6.19855444388342,tool,0.653691008049464,0,2,1
39,1,animal,0,0,tools,1,a_011.jpg,11,tbd,320.826369584579,325.641983187579,4.75981023635488,animal,0.876547245527036,0,1,1
40,1,tool,0,0,tools,1,t_331.jpg,331,tbd,328.208349467647,334.90696528594,6.63868871491405,tool,0.6588166210081,0,2,1
41,1,tool,0,0,tools,1,t_211.jpg,211,tbd,337.456535489455,343.388591690625,5.86228477052067,tool,0.72236511291112,0,2,1
42,1,tool,0,0,tools,1,t_203.jpg,203,tbd,345.938199740477,352.703535124783,6.70869133498298,tool,0.822685171053763,0,2,1
43,1,animal,0,0,tools,1,a_056.jpg,56,tbd,355.253058822203,359.968673419472,4.66804839691284,animal,0.683817334635478,0,1,1
44,1,animal,0,0,tools,1,a_128.jpg,128,tbd,362.534962723936,368.700312733606,6.10213964098331,animal,0.645402018543336,0,1,1
45,1,animal,0,0,tools,1,a_159.jpg,159,tbd,371.249916613946,377.115371919827,5.80639985637916,animal,0.736665576272117,0,1,1
46,1,tool,0,0,tools,1,t_241.jpg,241,tbd,379.681627226733,383.864010012935,4.12307856947022,tool,0.765157454224209,0,2,1
47,1,tool,0,0,tools,1,t_298.jpg,298,tbd,386.430265640574,393.712081341095,7.22825569470068,tool,0.617312658849187,0,2,1
48,1,animal,0,0,tools,1,a_055.jpg,55,tbd,396.27833247849,401.843839839122,5.51392997394225,animal,0.616761962556666,0,1,1
49,1,animal,0,0,tools,1,a_066.jpg,66,tbd,404.393428965804,409.175723999819,4.71103450536463,animal,0.668153120176612,0,1,1
50,1,animal,0,0,tools,1,a_013.jpg,13,tbd,411.741977061604,419.107126229097,7.30133392163881,animal,0.655953449311255,0,1,1
51,1,tool,0,0,tools,1,t_333.jpg,333,tbd,421.656730109437,427.338697067018,5.63873925152723,tool,0.677624326650403,0,2,1
52,1,tool,0,0,tools,1,t_244.jpg,244,tbd,429.888403581496,435.053890222861,5.12229139132572,tool,0.617888692944234,0,2,1
53,1,animal,0,0,tools,1,a_099.jpg,99,tbd,437.620243032198,442.902495248534,5.22553298600391,animal,0.681281950715402,0,1,1
54,1,tool,0,0,tools,1,t_293.jpg,293,tbd,445.468748310319,452.567248857647,7.05077218078558,tool,0.664021133959068,0,2,1
55,1,tool,0,0,tools,1,t_228.jpg,228,tbd,455.133498712115,459.915831592469,4.71957115793735,tool,0.618478839232921,0,2,1
56,1,tool,0,0,tools,1,t_265.jpg,265,tbd,462.465358817937,467.33109348111,4.8035379580155,tool,0.840357807285272,0,2,1
57,1,animal,0,0,tools,1,a_081.jpg,81,tbd,469.880603066337,475.495998956673,5.56302072267746,animal,0.792749679816097,0,1,1
58,1,animal,0,0,tools,1,a_064.jpg,64,tbd,478.045702584565,485.694114273182,7.59705019269243,animal,0.738845589492939,0,1,1
59,1,animal,0,0,tools,1,a_110.jpg,110,tbd,488.243745736447,494.37573099177,6.06073027245218,animal,0.662494451168186,0,1,1
60,1,tool,0,0,tools,1,t_338.jpg,338,tbd,496.925283555042,501.624294514764,4.64489243771109,tool,0.702143942760358,0,2,1
