trial,phase,object,toShock,seenBefore,shockedCategory,responseSide,filename,num,name,onsetFixationCross,onsetStimulus,interTrialTime,response,reactionTime,wasShocked,buttonPressed,isResponseCorrect
1,3,animal,0,0,animals,2,a_145.jpg,145,tbd,0.0155373657435121,5.36423783677674,5.26651806890922,animal,1.69136347721724,0,2,1
2,3,tool,0,0,animals,2,t_287.jpg,287,tbd,7.94744367726526,15.7125931951014,7.71420683968139,tool,1.26344552680166,0,1,1
3,3,tool,0,0,animals,2,t_335.jpg,335,tbd,18.2622365037951,23.7611687712561,5.44444166506754,tool,0.976150742173559,0,1,1
4,3,animal,0,0,animals,2,a_115.jpg,115,tbd,26.3107848173295,31.109803170526,4.73632712414995,animal,1.42092308645806,0,2,1
5,3,animal,0,0,animals,2,a_134.jpg,134,tbd,33.6594330082789,39.3916608262862,5.66408853195868,animal,1.28637852297834,0,2,1
6,3,animal,0,0,animals,2,a_007.jpg,7,tbd,41.9579599928202,49.023281233096,7.01107855825739,animal,0.911078393592106,0,2,1
7,3,tool,0,0,animals,2,t_278.jpg,278,tbd,51.5729152404256,58.4048880085957,6.77326369485009,tool,2.01905986270685,0,1,1
8,3,animal,0,0,animals,2,a_110.jpg,110,tbd,60.9712022497552,67.6198063073316,6.60964497192981,animal,1.22244446901095,0,2,1
9,3,animal,0,0,animals,2,a_136.jpg,136,tbd,70.169567647139,76.9349250023697,6.70048259516425,animal,1.44780050280679,0,2,1
10,3,animal,0,0,animals,2,a_024.jpg,24,tbd,79.5012074905935,86.6665139128327,7.10999707926915,animal,0.8075737676063,0,2,1
11,3,tool,0,0,animals,2,t_190.jpg,190,tbd,89.2161338077458,95.3482677140437,6.08233661131655,tool,0.821247094690989,0,1,1
12,3,animal,0,0,animals,2,a_078.jpg,78,tbd,97.8979055702148,104.146620217811,6.18961955119639,animal,0.806305574616999,0,2,1
13,3,tool,0,0,animals,2,t_215.jpg,215,tbd,106.69632959827,114.46150317136,7.71769880440141,tool,1.02579084349964,0,1,1
14,3,animal,0,0,animals,2,a_010.jpg,10,tbd,117.011168610888,122.143379493999,5.08506914876583,animal,0.774309200225616,0,2,1
15,3,animal,0,0,animals,2,a_004.jpg,4,tbd,124.693082138985,129.842051194948,5.09398111180487,animal,0.868907929723719,0,2,1
16,3,animal,0,0,animals,2,a_019.jpg,19,tbd,132.408361908003,136.840849073724,4.38858171181307,animal,0.684480787955181,0,2,1
17,3,tool,0,0,animals,2,t_282.jpg,282,tbd,139.407121939847,144.539391838513,5.08339839245127,tool,0.850280182532515,0,1,1
18,3,tool,0,0,animals,2,t_316.jpg,316,tbd,147.105680099998,154.62087596429,7.47112711380851,tool,1.11524591822854,0,1,1
19,3,animal,0,0,animals,2,a_064.jpg,64,tbd,157.187228052382,163.069311763384,5.83405038450339,animal,1.31818854933408,0,2,1
20,3,tool,0,0,animals,2,t_320.jpg,320,tbd,165.635721263348,171.101352078706,5.41109644351384,tool,1.03946449132309,0,1,1
21,3,tool,0,0,animals,2,t_207.jpg,207,tbd,173.650924825322,180.183012288942,6.47987588960233,tool,1.08521245256088,0,1,1
22,3,tool,0,0,animals,2,t_233.jpg,233,tbd,182.749258533917,187.381711573251,4.57334004404126,tool,0.928780815345817,0,1,1
23,3,animal,0,0,animals,2,a_012.jpg,12,tbd,189.94800528726,197.446556519499,7.44152406100328,animal,1.04644083570565,0,2,1
24,3,animal,0,0,animals,2,a_014.jpg,14,tbd,200.012871722867,204.24533688605,4.1748081161331,animal,0.670834723490771,0,2,1
25,3,animal,0,0,animals,2,a_037.jpg,37,tbd,206.79499623158,213.493655744534,6.63684558934537,animal,0.744962111135465,0,2,1
26,3,tool,0,0,animals,2,t_329.jpg,329,tbd,216.043311561962,222.075433985883,5.97419270540852,tool,0.816573639953276,0,1,1
27,3,animal,0,0,animals,2,a_152.jpg,152,tbd,224.641757207672,229.140849202018,4.44415360943547,animal,1.12754424699779,0,2,1
28,3,tool,0,0,animals,2,t_341.jpg,341,tbd,231.690482888611,238.722260199824,6.97550196509068,tool,1.0925470598595,0,1,1
29,3,tool,0,0,animals,2,t_182.jpg,182,tbd,241.272097874971,247.587538268937,6.26688093773969,tool,0.903598171822523,0,1,1
30,3,tool,0,0,animals,2,t_328.jpg,328,tbd,250.153846095363,256.119349257506,5.89939516620258,tool,2.44829219219901,0,1,1
31,3,animal,0,0,animals,2,a_016.jpg,16,tbd,258.68559069143,265.134262873486,6.39403429070646,animal,0.950697076121287,0,2,1
32,3,tool,0,0,animals,2,t_345.jpg,345,tbd,267.700717276592,272.666329809956,4.91815309936261,tool,0.945961398458167,0,1,1
33,3,animal,0,0,animals,2,a_167.jpg,167,tbd,275.216015776634,283.231032028363,7.96763429385268,animal,0.934659277940227,0,2,1
34,3,animal,0,0,animals,2,a_132.jpg,132,tbd,285.79743158549,292.162822874665,6.30681501464725,animal,1.33528445795309,0,2,1
35,3,tool,0,0,animals,2,t_255.jpg,255,tbd,294.729138398772,301.211241289828,6.43296136296785,tool,1.28723489001823,0,1,1
36,3,animal,0,0,animals,2,a_151.jpg,151,tbd,303.760852524851,308.160004240375,4.33839138600936,animal,1.0787893790166,0,2,1
37,3,tool,0,0,animals,2,t_234.jpg,234,tbd,310.726274219867,315.092012225437,4.3112485534777,tool,1.04816255041624,0,1,1
38,3,tool,0,0,animals,2,t_187.jpg,187,tbd,317.658355653637,325.440153973106,7.72467851775257,tool,0.721504389686743,0,1,1
39,3,tool,0,0,animals,2,t_325.jpg,325,tbd,327.989822940737,332.272262412907,4.23197842692035,tool,0.926583448081146,0,1,1
40,3,animal,0,0,animals,2,a_026.jpg,26,tbd,334.821910532653,338.904416525618,4.02850312257364,animal,0.880831317266711,0,2,1
41,3,tool,0,0,animals,2,t_260.jpg,260,tbd,341.470701579736,346.469731992633,4.93828738483067,tool,1.53483369456808,0,1,1
42,3,tool,0,0,animals,2,t_246.jpg,246,tbd,349.036048799686,354.801577749062,5.70956733444622,tool,1.04125163632307,0,1,1
43,3,animal,0,0,animals,2,a_053.jpg,53,tbd,357.351218812599,364.149859658677,6.74946339403759,animal,1.07942732435185,0,2,1
44,3,animal,0,0,animals,2,a_011.jpg,11,tbd,366.699536323989,372.665042693501,5.9130860573341,animal,0.959692778889803,0,2,1
45,3,tool,0,0,animals,2,t_301.jpg,301,tbd,375.214646551578,381.730067252311,6.46279362800203,tool,1.05094205482783,0,1,1
46,3,tool,0,0,animals,2,t_201.jpg,201,tbd,384.296370909158,390.645148357005,6.28832703428355,tool,0.862316469401776,0,1,1
47,3,animal,0,0,animals,2,a_003.jpg,3,tbd,393.211439184384,399.243584059877,5.97488852481236,animal,0.696261126922764,0,2,1
48,3,animal,0,0,animals,2,a_021.jpg,21,tbd,401.809848586845,406.558820465292,4.71077632962403,animal,0.670313847058424,0,2,1
49,3,tool,0,0,animals,2,t_358.jpg,358,tbd,409.125175119278,414.957402231665,5.78264342702542,tool,0.856066914424446,0,1,1
50,3,tool,0,0,animals,2,t_293.jpg,293,tbd,417.507065105299,423.372590783161,5.80881691701797,tool,0.806347591127633,0,1,1
51,3,animal,0,0,animals,2,a_125.jpg,125,tbd,425.92220522555,433.937132312472,7.96342237580715,animal,0.695278710350976,0,2,1
52,3,animal,0,0,animals,2,a_159.jpg,159,tbd,436.50362841135,441.952440434616,5.3997500472011,animal,0.916257650136686,0,2,1
53,3,tool,0,0,animals,2,t_348.jpg,348,tbd,444.502170983698,449.117740762858,4.57191334999339,tool,0.71133318684042,0,1,1
54,3,tool,0,0,animals,2,t_279.jpg,279,tbd,451.667673055337,459.216091791237,7.49178604235467,tool,0.708369579553619,0,1,1
55,3,animal,0,0,animals,2,a_030.jpg,30,tbd,461.78243104986,468.531071928011,6.69637242869794,animal,0.820861248417714,0,2,1
56,3,tool,0,0,animals,2,t_315.jpg,315,tbd,471.080752121428,479.012537835943,7.8841052268038,tool,0.887811510492611,0,1,1
57,3,tool,0,0,animals,2,t_312.jpg,312,tbd,481.562198785157,487.694152116681,6.08091865803641,tool,0.914544916055092,0,1,1
58,3,tool,0,0,animals,2,t_343.jpg,343,tbd,490.260614217468,495.209556459842,4.89575757065332,tool,0.761493202389829,0,1,1
59,3,animal,0,0,animals,2,a_089.jpg,89,tbd,497.759282197872,502.158348276693,4.35420783845273,animal,1.14902590951897,0,2,1
60,3,animal,0,0,animals,2,a_050.jpg,50,tbd,504.724688497527,510.540216131882,5.75956907870173,animal,0.875576366855967,0,2,1
