trial,phase,object,toShock,seenBefore,shockedCategory,responseSide,filename,num,name,onsetFixationCross,onsetStimulus,interTrialTime,response,reactionTime,wasShocked,buttonPressed,isResponseCorrect
1,2,animal,0,0,tools,2,a_135.jpg,135,tbd,0.0285217027167164,6.41042644262825,6.26604697920572,0,2.16714212927855,0,2,1
2,2,animal,0,0,tools,2,a_046.jpg,46,tbd,11.0098278837622,19.4416261070091,8.38193249860556,0,0.618356791308997,0,2,1
3,2,animal,0,0,tools,2,a_064.jpg,64,tbd,23.9909339250949,31.539441505066,7.48023520283017,0,0.96616144468544,0,2,1
4,2,tool,0,0,tools,2,t_195.jpg,195,tbd,36.105396200363,44.4038086818964,8.24625649742436,0,1.36131325258248,0,2,1
5,2,animal,0,0,tools,2,a_117.jpg,117,tbd,48.9530738419985,57.8846754536362,8.8718586238233,1,0.679004256110147,0,1,0
6,2,animal,0,0,tools,2,a_010.jpg,10,tbd,62.4506548456607,72.2488270953913,9.72636662262762,0,0.726478743107691,0,2,1
7,2,tool,1,0,tools,2,t_257.jpg,257,tbd,76.7980781430779,84.1966246284128,7.33406305481017,0,1.02221820482146,1,2,0
8,2,animal,0,0,tools,2,a_153.jpg,153,tbd,88.9625432729026,97.7441340757127,8.72406011796059,0,0.967342076550267,0,2,1
9,2,tool,0,0,tools,2,t_234.jpg,234,tbd,102.310169596663,110.341935361354,7.97906239484026,0,1.55215480800143,0,2,1
10,2,animal,0,0,tools,2,a_013.jpg,13,tbd,114.907900320226,124.839327130352,9.8742837824262,1,1.65533132032351,0,1,0
11,2,tool,0,0,tools,2,t_265.jpg,265,tbd,129.388609610237,139.270116636616,9.82197407987899,0,0.871076799058301,0,2,1
12,2,tool,1,0,tools,2,t_356.jpg,356,tbd,143.819289424543,152.367674803824,8.49813969911914,1,0.923160593450575,1,1,1
13,2,tool,1,0,tools,2,t_255.jpg,255,tbd,157.116960683518,165.898634877875,8.72425472636915,1,2.08183097296569,1,1,1
14,2,animal,0,0,tools,2,a_132.jpg,132,tbd,170.647836403813,177.863078005161,7.15204283879921,0,1.08888108679457,0,2,1
15,2,animal,0,0,tools,2,a_090.jpg,90,tbd,182.412354711785,192.110399693186,9.65023247215454,0,1.10817500415124,0,2,1
16,2,animal,0,0,tools,2,a_044.jpg,44,tbd,196.659782563664,205.724762540071,8.99492414530261,0,1.0644152898376,0,2,1
17,2,tool,1,0,tools,2,t_347.jpg,347,tbd,210.290712745054,216.672869584026,6.31375669123924,1,0.906843433586801,1,1,1
18,2,tool,1,0,tools,2,t_193.jpg,193,tbd,221.422044488816,227.570866005887,6.09658717965503,0,1.19634552831849,1,2,0
19,2,animal,0,0,tools,2,a_076.jpg,76,tbd,232.32008068203,239.018773551603,6.63569173735767,0,0.87585481396718,0,2,1
20,2,animal,0,0,tools,2,a_118.jpg,118,tbd,243.568052182648,249.666882712422,6.03716642581425,0,0.612206343977505,0,2,1
21,2,animal,0,0,tools,2,a_051.jpg,51,tbd,254.216154928732,262.681201682523,8.41058722276608,0,0.821471337296771,0,2,1
22,2,tool,0,0,tools,2,t_240.jpg,240,tbd,267.230465880415,275.462229271654,8.16948376849958,0,1.85308250688877,0,2,1
23,2,tool,0,0,tools,2,t_359.jpg,359,tbd,280.028128158762,286.260295036794,6.16603490002322,1,1.21742306257147,0,1,0
24,2,animal,0,0,tools,2,a_174.jpg,174,tbd,290.80958328994,298.508115149681,7.62968740897898,1,1.90324316391161,0,1,0
25,2,animal,0,0,tools,2,a_099.jpg,99,tbd,303.074017564892,310.622591216627,7.49814185463519,0,0.696245137725327,0,2,1
26,2,tool,1,0,tools,2,t_210.jpg,210,tbd,315.171855093783,324.836669505895,9.60711248026295,1,1.83286711293704,1,1,1
27,2,animal,0,0,tools,2,a_070.jpg,70,tbd,329.602567623234,336.767785201403,7.10637429003505,0,0.885227703118744,0,2,1
28,2,tool,1,0,tools,2,t_259.jpg,259,tbd,341.333795384152,348.14916040499,6.75717725336279,1,1.29534669002669,1,1,1
29,2,tool,1,0,tools,2,t_332.jpg,332,tbd,352.915019071713,362.079941892836,9.10852053687181,0,1.16316563543205,1,2,0
30,2,tool,0,0,tools,2,t_319.jpg,319,tbd,366.845885234054,376.827318747577,9.91597158331382,1,3.54454629154316,0,1,0
31,2,animal,0,0,tools,2,a_092.jpg,92,tbd,381.393253236461,390.20821926082,8.75271915313706,0,0.696036979594737,0,2,1
32,2,animal,0,0,tools,2,a_028.jpg,28,tbd,394.757461969351,404.155733262581,9.34043298632124,0,0.822092925058769,0,2,1
33,2,tool,1,0,tools,2,t_214.jpg,214,tbd,408.705013176572,418.619797920538,9.84541080972297,0,1.93176788405253,1,2,0
34,2,tool,1,0,tools,2,t_276.jpg,276,tbd,423.3690302372,431.217536662519,7.7847961075458,1,1.9606386791138,1,1,1
35,2,tool,1,0,tools,2,t_307.jpg,307,tbd,435.966770262128,443.148719712738,7.12302290326727,0,0.997869797503881,1,2,0
36,2,animal,0,0,tools,2,a_156.jpg,156,tbd,447.91461462271,455.213197094705,7.23816921564451,0,0.555894598149735,0,2,1
37,2,tool,1,0,tools,2,t_267.jpg,267,tbd,459.762472839119,466.077918685611,6.25261757118173,0,1.28377066034955,1,2,0
38,2,animal,0,0,tools,2,a_042.jpg,42,tbd,470.843804294218,478.992063239084,8.13218614658498,0,0.673086663636695,0,2,1
39,2,animal,0,0,tools,2,a_102.jpg,102,tbd,483.541533029213,493.156356774764,9.55174017477569,0,0.620452805770128,0,2,1
40,2,tool,1,0,tools,2,t_204.jpg,204,tbd,497.722316281111,503.904445344284,6.12706771743656,1,0.712871167049798,1,1,1
41,2,animal,0,0,tools,2,a_021.jpg,21,tbd,508.653687283048,515.668999254033,6.9630709021246,0,0.844848874564832,0,2,1
42,2,animal,0,0,tools,2,a_114.jpg,114,tbd,520.218283658338,528.783287689999,8.50082783508683,0,0.666118979143903,0,2,1
43,2,tool,1,0,tools,2,t_225.jpg,225,tbd,533.349234046141,541.614344805568,8.21652106044903,0,0.866554360580722,1,2,0
44,2,animal,0,0,tools,2,a_162.jpg,162,tbd,546.380222986497,556.044991533259,9.6103384732331,0,0.845608058379185,0,2,1
45,2,tool,0,0,tools,2,t_230.jpg,230,tbd,560.594280427878,566.876457537412,6.22267000101786,1,1.13963606895868,0,1,0
46,2,tool,0,0,tools,2,t_186.jpg,186,tbd,571.425729112248,578.107754898198,6.61972508566939,1,1.4657804094627,0,1,0
47,2,tool,0,0,tools,2,t_188.jpg,188,tbd,582.673664369617,592.021960712385,9.27666094700873,0,1.76419770204711,0,2,1
48,2,animal,0,0,tools,2,a_080.jpg,80,tbd,596.587849335917,604.469588254944,7.8228643541937,0,0.786073549994853,0,2,1
49,2,tool,1,0,tools,2,t_245.jpg,245,tbd,609.035618964844,617.267272664125,8.18120732803283,1,1.17303566649844,1,1,1
50,2,animal,0,0,tools,2,a_052.jpg,52,tbd,622.016611786114,629.415156667766,7.33888053280235,0,0.842665298978773,0,2,1
51,2,animal,0,0,tools,2,a_085.jpg,85,tbd,633.96447731532,641.879642453035,7.84600643397305,0,0.594659479531856,0,2,1
52,2,animal,0,0,tools,2,a_023.jpg,23,tbd,646.428886444514,656.360310047272,9.85592048925898,0,0.705614819509719,0,2,1
53,2,tool,1,0,tools,2,t_185.jpg,185,tbd,660.909612733571,668.508141450091,7.5379765015988,0,1.37236616067003,1,2,0
54,2,animal,0,0,tools,2,a_113.jpg,113,tbd,673.257417066211,679.489395030315,6.18355749158208,0,0.724577736571518,0,2,1
55,2,tool,1,0,tools,2,t_295.jpg,295,tbd,684.038787522895,692.287207413447,8.18884496074993,1,1.54238035647768,1,1,1
56,2,tool,1,0,tools,2,t_273.jpg,273,tbd,697.05310905889,703.818474111802,6.71031741348064,1,1.70754661677074,1,1,1
57,2,tool,1,0,tools,2,t_303.jpg,303,tbd,708.567712201725,716.699452564068,8.06749456906168,1,2.42926100585373,1,1,1
58,2,animal,0,0,tools,2,a_036.jpg,36,tbd,721.465396546758,730.813618799344,9.29151589345189,0,0.675641331606585,0,2,1
59,2,tool,0,0,tools,2,t_200.jpg,200,tbd,735.362903203649,744.977669858064,9.55402448322384,1,2.20628868735685,0,1,0
60,2,tool,1,0,tools,2,t_248.jpg,248,tbd,749.526985694567,755.875726899165,6.30208771336986,1,2.32771383606632,1,1,1
