trial,phase,object,toShock,seenBefore,shockedCategory,responseSide,filename,num,name,onsetFixationCross,onsetStimulus,interTrialTime,response,reactionTime,wasShocked,buttonPressed,isResponseCorrect
1,1,tool,0,0,tools,1,t_339.jpg,339,tbd,0.0155143053848406,6.54753515847051,6.45762255346346,tool,1.0598975539574,0,2,1
2,1,tool,0,0,tools,1,t_191.jpg,191,tbd,9.11389355339588,14.4128397374507,5.24538099172501,tool,0.658992047146967,0,2,1
3,1,tool,0,0,tools,1,t_224.jpg,224,tbd,16.9625463907064,24.9776624400383,7.94837427411068,tool,0.667655494461997,0,2,1
4,1,animal,0,0,tools,1,a_091.jpg,91,tbd,27.5439897234023,34.7925278007465,7.19395239883435,tool,0.57718211120482,0,2,0
5,1,animal,0,0,tools,1,a_041.jpg,41,tbd,37.3422440761346,43.8409447675167,6.45004951584345,animal,0.545262611247836,0,1,1
6,1,tool,0,0,tools,1,t_199.jpg,199,tbd,46.40726788129,50.6897884437872,4.22910430862853,tool,0.702744524846366,0,2,1
7,1,animal,0,0,tools,1,a_178.jpg,178,tbd,53.2560923132955,57.671881334571,4.34847044628837,animal,0.942902045568644,0,1,1
8,1,tool,0,0,tools,1,t_265.jpg,265,tbd,60.2215270476545,65.3538907052448,5.08493074572048,tool,0.756497605532331,0,2,1
9,1,animal,0,0,tools,1,a_109.jpg,109,tbd,67.903502740865,72.6024207641453,4.64233133743893,animal,0.827076909223251,0,1,1
10,1,tool,0,0,tools,1,t_341.jpg,341,tbd,75.1522082433135,81.9176328423591,6.69773111474256,tool,0.872469319028824,0,2,1
11,1,animal,0,0,tools,1,a_074.jpg,74,tbd,84.4672532171603,88.9163191005428,4.38080952367861,animal,0.901956664641602,0,1,1
12,1,animal,0,0,tools,1,a_102.jpg,102,tbd,91.4826640244828,98.3646174584937,6.8270235733476,animal,1.39415792629552,0,1,1
13,1,tool,0,0,tools,1,t_303.jpg,303,tbd,100.93099990875,108.829486732202,7.8458383254538,tool,0.948719266106764,0,2,1
14,1,tool,0,0,tools,1,t_238.jpg,238,tbd,111.395815298517,115.828272739825,4.3795084973458,tool,0.904339104634801,0,2,1
15,1,animal,0,0,tools,1,a_022.jpg,22,tbd,118.377847890604,122.960431766733,4.51526576993117,animal,0.744355115863073,0,1,1
16,1,animal,0,0,tools,1,a_168.jpg,168,tbd,125.526649357787,129.925653210489,4.34591107232256,animal,0.879409442422912,0,1,1
17,1,animal,0,0,tools,1,a_137.jpg,137,tbd,132.475419200228,140.507243761811,7.98265679462731,animal,1.17044398844428,0,1,1
18,1,tool,0,0,tools,1,t_306.jpg,306,tbd,143.056839760544,148.222527107953,5.11110755333148,tool,1.24853978126339,0,2,1
19,1,tool,0,0,tools,1,t_271.jpg,271,tbd,150.788869145254,158.570719686595,7.73064010759723,tool,0.810872917449615,0,2,1
20,1,tool,0,0,tools,1,t_278.jpg,278,tbd,161.120383040254,165.50280443064,4.3266111071112,tool,0.968160143234854,0,2,1
21,1,animal,0,0,tools,1,a_170.jpg,170,tbd,168.069124337035,173.651468301328,5.52288125290803,animal,1.46587039645101,0,1,1
22,1,animal,0,0,tools,1,a_174.jpg,174,tbd,176.217654139346,181.066747349584,4.78793706876459,animal,1.25995195107953,0,1,1
23,1,tool,0,0,tools,1,t_253.jpg,253,tbd,183.616385044224,188.265498909973,4.59812024642146,tool,1.230545752117,0,2,1
24,1,tool,0,0,tools,1,t_316.jpg,316,tbd,190.815094908706,198.563629778672,7.69081332517383,tool,0.925866380814568,0,2,1
25,1,animal,0,0,tools,1,a_158.jpg,158,tbd,201.113282868724,205.762337718727,4.59536352230532,animal,1.36268136516901,0,1,1
26,1,animal,0,0,tools,1,a_161.jpg,161,tbd,208.328692906276,213.810937826752,5.40699117043682,animal,0.877280385250742,0,1,1
27,1,tool,0,0,tools,1,t_215.jpg,215,tbd,216.377230149702,223.175966892007,6.74652904645653,tool,1.21663343155387,0,2,1
28,1,animal,0,0,tools,1,a_076.jpg,76,tbd,225.725617416156,232.774230353691,6.98581122015801,animal,1.30582386381866,0,1,1
29,1,animal,0,0,tools,1,a_009.jpg,9,tbd,235.323914555304,239.956293287569,4.56918881654429,animal,1.00835756373363,0,1,1
30,1,tool,0,0,tools,1,t_328.jpg,328,tbd,242.505982941724,246.855124262624,4.28758638322864,tool,0.73869601903516,0,2,1
31,1,tool,0,0,tools,1,t_220.jpg,220,tbd,249.404760995051,256.553379641717,7.09472791472243,tool,0.679836793398408,0,2,1
32,1,tool,0,0,tools,1,t_266.jpg,266,tbd,259.119708849508,266.568316398648,7.38607966364075,tool,0.901386713663214,0,2,1
33,1,animal,0,0,tools,1,a_127.jpg,127,tbd,269.134600703154,273.600240388933,4.41151213168231,animal,1.20580019337285,0,1,1
34,1,tool,0,0,tools,1,t_317.jpg,317,tbd,276.166706551742,281.715617133907,5.4977732595992,tool,0.864725426837595,0,2,1
35,1,tool,0,0,tools,1,t_212.jpg,212,tbd,284.265258035924,288.831027556344,4.50615398245619,tool,0.752722522236581,0,2,1
36,1,animal,0,0,tools,1,a_058.jpg,58,tbd,291.397338482083,297.846060855337,6.38435139059802,animal,0.866033395374416,0,1,1
37,1,animal,0,0,tools,1,a_001.jpg,1,tbd,300.395743132524,307.311071253655,6.85552928062513,animal,0.960550960898217,0,1,1
38,1,animal,0,0,tools,1,a_089.jpg,89,tbd,309.86072241928,314.826450307941,4.9023331882035,animal,1.37347675629553,0,1,1
39,1,tool,0,0,tools,1,t_249.jpg,249,tbd,317.37602545872,322.425094485332,5.00045422975411,tool,0.702156612554063,0,2,1
40,1,animal,0,0,tools,1,a_073.jpg,73,tbd,324.991338697619,331.840090322156,6.78723467874156,animal,0.863608297260726,0,1,1
41,1,tool,0,0,tools,1,t_263.jpg,263,tbd,334.389749185487,340.088647964502,5.64492630315656,tool,0.965446701885867,0,2,1
42,1,animal,0,0,tools,1,a_032.jpg,32,tbd,342.65494766442,349.903549568576,7.17725963927781,animal,1.87211586603007,0,1,1
43,1,tool,0,0,tools,1,t_286.jpg,286,tbd,352.453213242973,357.985443217071,5.47452267144289,tool,0.835562026350544,0,2,1
44,1,animal,0,0,tools,1,a_169.jpg,169,tbd,360.551774990763,364.634184385557,4.03309606175966,animal,0.894134512439905,0,1,1
45,1,animal,0,0,tools,1,a_098.jpg,98,tbd,367.200602758441,371.833026714728,4.56343038881726,animal,0.876650777051054,0,1,1
46,1,tool,0,0,tools,1,t_242.jpg,242,tbd,374.382652542071,381.33132584245,6.89237110402718,tool,0.777778875858985,0,2,1
47,1,animal,0,0,tools,1,a_060.jpg,60,tbd,383.880988233896,388.263228086716,4.31892155772541,animal,1.15822035212477,0,1,1
48,1,tool,0,0,tools,1,t_292.jpg,292,tbd,390.813139049917,396.91192820077,6.03604556201106,tool,0.69583647522677,0,2,1
49,1,animal,0,0,tools,1,a_040.jpg,40,tbd,399.461553386638,404.827208852715,5.30776606518875,animal,1.18695364329187,0,1,1
50,1,animal,0,0,tools,1,a_065.jpg,65,tbd,407.393494440172,411.642651220632,4.18131585931538,animal,0.833802779801772,0,1,1
51,1,animal,0,0,tools,1,a_025.jpg,25,tbd,414.208917563824,418.991375903198,4.72509557036572,animal,1.08057327141569,0,1,1
52,1,tool,0,0,tools,1,t_183.jpg,183,tbd,421.557660849179,426.789992368847,5.16912791107673,tool,0.740169488250103,0,2,1
53,1,tool,0,0,tools,1,t_268.jpg,268,tbd,429.339593178646,433.455449426554,4.04995182222244,tool,0.631172217086714,0,2,1
54,1,animal,0,0,tools,1,a_034.jpg,34,tbd,436.021762918194,444.036914890154,7.9602638405156,animal,1.14516375987387,0,1,1
55,1,animal,0,0,tools,1,a_123.jpg,123,tbd,446.586573432747,451.402242241515,4.75875959559038,animal,1.51420717878409,0,1,1
56,1,tool,0,0,tools,1,t_338.jpg,338,tbd,453.96859646685,458.351065326422,4.31546850560674,tool,1.20660973544909,0,2,1
57,1,animal,0,0,tools,1,a_045.jpg,45,tbd,460.900706549176,467.649491594586,6.68965771225835,animal,0.775674515493392,0,1,1
58,1,tool,0,0,tools,1,t_200.jpg,200,tbd,470.199054236593,477.464346691687,7.19916898127322,tool,0.793214059250204,0,2,1
59,1,tool,0,0,tools,1,t_267.jpg,267,tbd,480.013982782638,486.012808561742,5.92998055812964,tool,1.08023393087842,0,2,1
60,1,tool,0,0,tools,1,t_218.jpg,218,tbd,488.579130713302,495.810990427743,7.18486102580473,tool,0.682430599567851,0,2,1
