trial,phase,object,toShock,seenBefore,shockedCategory,responseSide,filename,num,name,onsetFixationCross,onsetStimulus,interTrialTime,response,reactionTime,wasShocked,buttonPressed,isResponseCorrect
1,2,animal,1,0,animals,1,a_072.jpg,72,tbd,0.0286082224629354,7.92690003188545,7.78769325391806,1,1.63027774912734,1,1,1
2,2,tool,0,0,animals,1,t_224.jpg,224,tbd,12.7097152972547,20.2750048826747,7.52701416374157,0,0.791661955052405,0,2,1
3,2,animal,1,0,animals,1,a_060.jpg,60,tbd,24.824290886083,31.6063161718466,6.73332494551499,1,0.698989938035083,1,1,1
4,2,tool,0,0,animals,1,t_359.jpg,359,tbd,36.3722965002962,44.5040431602829,8.07690337416219,0,0.76997712708544,0,2,1
5,2,tool,0,0,animals,1,t_342.jpg,342,tbd,49.0700803877899,57.501815950216,8.37364297256562,0,0.603728596872315,0,2,1
6,2,tool,0,0,animals,1,t_297.jpg,297,tbd,62.0678053876454,69.4497953279952,7.339611478104,0,0.864355795136362,0,2,1
7,2,animal,0,0,animals,1,a_109.jpg,109,tbd,74.0157395412589,84.0471065106813,9.97673323684368,1,0.549836463887914,0,1,0
8,2,animal,1,0,animals,1,a_154.jpg,154,tbd,88.6131838305355,97.6782065612933,9.0106860706295,1,0.978391901340729,1,1,1
9,2,tool,0,0,animals,1,t_182.jpg,182,tbd,102.427504945219,109.092883311132,6.6192185244962,0,0.819333372288384,0,2,1
10,2,animal,1,0,animals,1,a_088.jpg,88,tbd,113.65887627669,121.9740239352,8.25794389836489,0,0.461831516813618,1,2,0
11,2,animal,1,0,animals,1,a_134.jpg,134,tbd,126.739983736368,136.53806745047,9.74515121857664,1,0.649457286506731,1,1,1
12,2,tool,0,0,animals,1,t_284.jpg,284,tbd,141.304081456492,147.469554440344,6.0983791570836,0,1.0665844806008,0,2,1
13,2,tool,0,0,animals,1,t_298.jpg,298,tbd,152.035540991126,160.933820933213,8.84647183595971,1,0.568986493301054,0,1,0
14,2,tool,0,0,animals,1,t_267.jpg,267,tbd,165.499883819824,173.84835399208,8.30491439669464,0,0.497032597575526,0,2,1
15,2,animal,0,0,animals,1,a_030.jpg,30,tbd,178.397613374171,186.179613321568,7.72337272724802,1,0.647469347568403,0,1,0
16,2,animal,1,0,animals,1,a_029.jpg,29,tbd,190.745488575994,197.860794487018,7.05518117471971,1,0.825875160380747,1,1,1
17,2,tool,0,0,animals,1,t_205.jpg,205,tbd,202.626775136207,210.641816181147,7.97238303613426,0,0.866437389797284,0,2,1
18,2,animal,1,0,animals,1,a_011.jpg,11,tbd,215.191196481757,223.439725092618,8.20335059753708,0,0.492165707375534,1,2,0
19,2,tool,0,0,animals,1,t_255.jpg,255,tbd,228.18899525153,236.537372088804,8.28484919750938,1,0.502139400379747,0,1,0
20,2,animal,1,0,animals,1,a_128.jpg,128,tbd,241.103460955253,248.03538767799,6.87965436663579,0,0.796772606723607,1,2,0
21,2,animal,1,0,animals,1,a_175.jpg,175,tbd,252.784724871308,259.316839482819,6.47652855307609,0,0.666015746601261,1,2,0
22,2,animal,1,0,animals,1,a_139.jpg,139,tbd,264.08278260557,272.531136285503,8.39182511795588,1,0.754303585277739,1,1,1
23,2,tool,0,0,animals,1,t_330.jpg,330,tbd,277.297137141233,287.278653607,9.91580709346837,0,0.612531914081046,0,2,1
24,2,animal,0,0,animals,1,a_076.jpg,76,tbd,291.844605838733,301.342862302741,9.45195378186672,1,0.77201253536623,0,1,0
25,2,tool,0,0,animals,1,t_227.jpg,227,tbd,305.892166909,315.906982795319,9.96350355577188,1,0.432536840629837,0,1,0
26,2,tool,0,0,animals,1,t_191.jpg,191,tbd,320.473005268845,327.854895780172,7.31777305731771,1,0.531244519948814,0,1,0
27,2,animal,1,0,animals,1,a_094.jpg,94,tbd,332.404233101786,342.402428304687,9.94332332207638,1,0.543506363390406,1,1,1
28,2,animal,1,0,animals,1,a_145.jpg,145,tbd,347.151697501386,354.683587595753,7.48441576938358,1,1.22292089965413,1,1,1
29,2,tool,0,0,animals,1,t_253.jpg,253,tbd,359.432919336512,366.048288433074,6.57654769589452,0,1.39875951929753,0,2,1
30,2,tool,0,0,animals,1,t_240.jpg,240,tbd,370.597592397853,379.079364813164,8.43165514946115,1,0.571465162569439,0,1,0
31,2,animal,0,0,animals,1,a_048.jpg,48,tbd,383.628688984487,391.560531994402,7.88026749235335,1,0.575878528137764,0,1,0
32,2,tool,0,0,animals,1,t_335.jpg,335,tbd,396.109847505779,402.925242133148,6.75301402320127,1,0.558667043895184,0,1,0
33,2,animal,1,0,animals,1,a_019.jpg,19,tbd,407.474551871226,414.85648022973,7.33626402121794,1,0.47807052108692,1,1,1
34,2,animal,1,0,animals,1,a_124.jpg,124,tbd,419.605763218195,427.037701166788,7.39119145203807,1,0.880487672657182,1,1,1
35,2,tool,0,0,animals,1,t_254.jpg,254,tbd,431.803652628747,440.135386010148,8.26692257353089,0,0.559451250202983,0,2,1
36,2,tool,0,0,animals,1,t_230.jpg,230,tbd,444.701424199873,452.866544691809,8.10650892171259,0,0.495862863255752,0,2,1
37,2,tool,0,0,animals,1,t_237.jpg,237,tbd,457.41586180688,464.181225354661,6.71922384852085,1,0.490773701083526,0,1,0
38,2,animal,0,0,animals,1,a_022.jpg,22,tbd,468.730592184242,478.262094826167,9.48350093572679,1,0.474655615329539,0,1,0
39,2,tool,0,0,animals,1,t_251.jpg,251,tbd,482.811491163715,490.5766388543,7.70602493419435,1,0.837659103042824,0,1,0
40,2,tool,0,0,animals,1,t_290.jpg,290,tbd,495.125992533591,502.757707761177,7.56898106562644,1,0.731297955029731,0,1,0
41,2,animal,1,0,animals,1,a_126.jpg,126,tbd,507.323882585621,513.672643988686,6.29396533550057,0,0.572922920309793,1,2,0
42,2,animal,0,0,animals,1,a_121.jpg,121,tbd,518.438622713442,525.703946168876,7.20555743029546,1,1.04821448789335,0,1,0
43,2,animal,0,0,animals,1,a_063.jpg,63,tbd,530.269907381295,539.168365287527,8.84076500713046,0,0.772471879168734,0,2,1
44,2,tool,0,0,animals,1,t_343.jpg,343,tbd,543.717552228529,552.215853916707,8.44814528895003,1,1.0736699209192,0,1,0
45,2,tool,0,0,animals,1,t_347.jpg,347,tbd,556.765281045176,566.230192543726,9.41355517485988,0,0.584994244914924,0,2,1
46,2,tool,0,0,animals,1,t_212.jpg,212,tbd,570.796202508438,578.861357383572,8.02409927267224,0,0.776423335024447,0,2,1
47,2,animal,0,0,animals,1,a_129.jpg,129,tbd,583.410712666557,592.942250589747,9.45952588768301,1,0.56227695882626,0,1,0
48,2,animal,1,0,animals,1,a_062.jpg,62,tbd,597.50823906496,606.756531932821,9.19397778063075,1,0.714687535253688,1,1,1
49,2,tool,0,0,animals,1,t_341.jpg,341,tbd,611.522449717209,620.454090340956,8.88067001046554,1,0.732753146859977,0,1,0
50,2,animal,0,0,animals,1,a_105.jpg,105,tbd,625.020098381236,634.45153533586,9.37549798155092,1,1.29305588577517,0,1,0
51,2,animal,1,0,animals,1,a_107.jpg,107,tbd,639.017699896662,645.399801454107,6.33951856741005,1,0.477280862216503,1,1,1
52,2,animal,0,0,animals,1,a_163.jpg,163,tbd,650.149117157926,657.481037530033,7.27080141274596,1,0.835732425210153,0,1,0
53,2,tool,0,0,animals,1,t_238.jpg,238,tbd,662.047016383085,669.945545539202,7.85054699184963,1,0.499861513586438,0,1,0
54,2,tool,0,0,animals,1,t_245.jpg,245,tbd,674.511560635734,684.176412027837,9.60842291069864,1,0.725669630972334,0,1,0
55,2,tool,0,0,animals,1,t_306.jpg,306,tbd,688.72573619916,698.057221328749,9.29429966497853,1,0.509529542538075,0,1,0
56,2,animal,1,0,animals,1,a_043.jpg,43,tbd,702.606709572845,710.171814878948,7.50741938952669,1,0.722550767106441,1,1,1
57,2,animal,1,0,animals,1,a_049.jpg,49,tbd,714.921191202397,724.635951472612,9.67803735502339,1,0.652208583735046,1,1,1
58,2,animal,1,0,animals,1,a_153.jpg,153,tbd,729.402020966441,735.717456327635,6.25442781211306,1,2.22633259802569,1,1,1
59,2,tool,0,0,animals,1,t_268.jpg,268,tbd,740.46674701383,747.415398018609,6.89297383255398,0,0.763921578978625,0,2,1
60,2,tool,0,0,animals,1,t_221.jpg,221,tbd,751.964765168928,760.562948119608,8.55743738271864,0,0.841955719699399,0,2,1
