trial,phase,object,toShock,seenBefore,shockedCategory,responseSide,filename,num,name,onsetFixationCross,onsetStimulus,interTrialTime,response,reactionTime,wasShocked,buttonPressed,isResponseCorrect
1,1,animal,0,0,animals,1,a_148.jpg,148,tbd,0.0155012053255632,5.03115614428589,4.92262699243741,animal,0.953153956226743,0,1,1
2,1,tool,0,0,animals,1,t_321.jpg,321,tbd,7.59752533642859,12.9798299215172,5.32538752154402,tool,0.621965830746376,0,2,1
3,1,animal,0,0,animals,1,a_115.jpg,115,tbd,15.5127823027142,20.3785402950434,4.80802425003743,animal,0.590593729502871,0,1,1
4,1,animal,0,0,animals,1,a_120.jpg,120,tbd,22.9281406224536,28.7437722757786,5.74755400815905,animal,0.481707405098859,0,1,1
5,1,tool,0,0,animals,1,t_216.jpg,216,tbd,31.293410129625,36.1924447700549,4.8484930394134,tool,0.539478232110923,0,2,1
6,1,tool,0,0,animals,1,t_309.jpg,309,tbd,38.7421474131352,45.4739956831663,6.6795471973435,tool,0.539398688893925,0,2,1
7,1,tool,0,0,animals,1,t_338.jpg,338,tbd,48.0238465075608,52.4396269195304,4.36423138555969,tool,0.576198010980988,0,2,1
8,1,animal,0,0,animals,1,a_166.jpg,166,tbd,54.9893173745368,61.1547124188664,6.12566629948271,animal,0.404395568106338,0,1,1
9,1,tool,0,0,animals,1,t_190.jpg,190,tbd,63.704466059412,71.6196187855949,7.87043008558561,tool,0.472138484430616,0,2,1
10,1,tool,0,0,animals,1,t_332.jpg,332,tbd,74.1693211079364,79.568316938974,5.33856593211742,tool,0.446780555991609,0,2,1
11,1,tool,0,0,animals,1,t_208.jpg,208,tbd,82.11794452918,86.9169936670023,4.73834032585209,tool,0.480414186350572,0,2,1
12,1,animal,0,0,animals,1,a_013.jpg,13,tbd,89.4666533310856,96.1987261182612,6.67253167066939,animal,0.400134874194009,0,1,1
13,1,animal,0,0,animals,1,a_091.jpg,91,tbd,98.7650289174762,103.080888616072,4.27087797778604,animal,0.607330199618445,0,1,1
14,1,tool,0,0,animals,1,t_352.jpg,352,tbd,105.630475151715,110.279496481485,4.59775824779983,tool,0.504092085075172,0,2,1
15,1,animal,0,0,animals,1,a_017.jpg,17,tbd,112.829275781132,119.561303023401,6.67958081830109,animal,0.52480892341282,0,1,1
16,1,animal,0,0,animals,1,a_099.jpg,99,tbd,122.111017213078,129.22622626099,7.064292927605,animal,0.490343938143269,0,1,1
17,1,animal,0,0,animals,1,a_140.jpg,140,tbd,131.775975411192,136.108486904866,4.27633168075657,animal,0.624402162495244,0,1,1
18,1,tool,0,0,animals,1,t_289.jpg,289,tbd,138.658107759558,144.173704003322,5.45923527161337,tool,0.520646375565775,0,2,1
19,1,tool,0,0,animals,1,t_320.jpg,320,tbd,146.723385477643,153.40547465457,6.61370017484856,tool,0.557389568366489,0,2,1
20,1,animal,0,0,animals,1,a_080.jpg,80,tbd,155.955088773747,163.053764379189,7.04566065033008,animal,0.498472741704973,0,1,1
21,1,animal,0,0,animals,1,a_010.jpg,10,tbd,165.620105025581,172.435469503504,6.76604288075028,animal,0.516285931894345,0,1,1
22,1,tool,0,0,animals,1,t_328.jpg,328,tbd,175.001826828313,179.934165379638,4.87985226414209,tool,0.694999653933337,0,2,1
23,1,animal,0,0,animals,1,a_071.jpg,71,tbd,182.500518534842,189.015954409218,6.47353864732636,animal,0.538676064429637,0,1,1
24,1,animal,0,0,animals,1,a_037.jpg,37,tbd,191.565624336942,198.68091870137,7.06103568231621,animal,0.44305068475478,0,1,1
25,1,tool,0,0,animals,1,t_316.jpg,316,tbd,201.230596647563,208.745825966167,7.45637441369441,tool,0.553843159710596,0,2,1
26,1,tool,0,0,animals,1,t_217.jpg,217,tbd,211.295418916585,217.394190422921,6.06347136557002,tool,0.476846608936285,0,2,1
27,1,tool,0,0,animals,1,t_288.jpg,288,tbd,219.944031625153,225.976214233286,5.98078437362187,tool,0.579342213210111,0,2,1
28,1,animal,0,0,animals,1,a_079.jpg,79,tbd,228.525857860431,235.457874390025,6.88114993396446,animal,0.501003049915198,0,1,1
29,1,animal,0,0,animals,1,a_056.jpg,56,tbd,238.02419803726,242.389975273916,4.3139753641085,animal,0.599339313732344,0,1,1
30,1,tool,0,0,animals,1,t_228.jpg,228,tbd,244.956327787642,252.388376070375,7.36874858488905,tool,0.450343643064116,0,2,1
31,1,animal,0,0,animals,1,a_138.jpg,138,tbd,254.954607024104,262.086413020765,7.08028416696452,animal,0.470864830746905,0,1,1
32,1,tool,0,0,animals,1,t_358.jpg,358,tbd,264.636272184368,271.301613023844,6.61453930505731,tool,0.436128500473387,0,2,1
33,1,animal,0,0,animals,1,a_147.jpg,147,tbd,273.867971310868,280.150089931614,6.22553117085169,animal,0.609048397246625,0,1,1
34,1,animal,0,0,animals,1,a_021.jpg,21,tbd,282.716448539377,290.148390016097,7.3750774862853,animal,0.465302578878436,0,1,1
35,1,tool,0,0,animals,1,t_241.jpg,241,tbd,292.714714625549,299.38010646249,6.61504831932219,tool,0.525085400237913,0,2,1
36,1,tool,0,0,animals,1,t_323.jpg,323,tbd,301.929789219766,306.628850930549,4.64546997879937,animal,0.617608915201345,0,1,0
37,1,tool,0,0,animals,1,t_286.jpg,286,tbd,309.195193501372,314.577494237597,5.32011654168635,tool,0.828446550175613,0,2,1
38,1,animal,0,0,animals,1,a_074.jpg,74,tbd,317.143811790796,321.759390971257,4.56253755982721,animal,0.740920466095304,0,1,1
39,1,tool,0,0,animals,1,t_277.jpg,277,tbd,324.32591475949,330.924638475749,6.54879311977214,tool,0.426090659711917,0,2,1
40,1,tool,0,0,animals,1,t_213.jpg,213,tbd,333.474318987853,339.672996132842,6.15328649152753,tool,0.57913469522191,0,2,1
41,1,tool,0,0,animals,1,t_283.jpg,283,tbd,342.222795318294,346.35528416781,4.08041432258856,tool,0.764173065201248,0,2,1
42,1,animal,0,0,animals,1,a_044.jpg,44,tbd,348.921582476682,354.937065820397,5.96846635523152,animal,0.523875252833022,0,1,1
43,1,animal,0,0,animals,1,a_130.jpg,130,tbd,357.486818498726,363.702258093672,6.16686359973946,animal,0.549115149400677,0,1,1
44,1,animal,0,0,animals,1,a_061.jpg,61,tbd,366.268621191777,374.150489892869,7.82474134892597,animal,0.551357754929086,0,1,1
45,1,tool,0,0,animals,1,t_186.jpg,186,tbd,376.716821237836,381.515702950016,4.75037017996022,tool,0.631602427297366,0,2,1
46,1,tool,0,0,animals,1,t_220.jpg,220,tbd,384.065531322697,388.24797010489,4.13317528331787,tool,0.718601216829484,0,2,1
47,1,animal,0,0,animals,1,a_167.jpg,167,tbd,390.814414991384,398.329519221864,7.46785658170034,animal,0.81557337862796,0,1,1
48,1,animal,0,0,animals,1,a_057.jpg,57,tbd,400.89595320324,408.277715739796,7.33903021974074,animal,0.511849473132315,0,1,1
49,1,animal,0,0,animals,1,a_114.jpg,114,tbd,410.827559187199,415.626666058,4.74676829830673,animal,0.536259939223783,0,1,1
50,1,tool,0,0,animals,1,t_354.jpg,354,tbd,418.192960197269,425.774880088269,7.52221993499601,tool,0.447561234174827,0,2,1
51,1,tool,0,0,animals,1,t_301.jpg,301,tbd,428.324538790137,433.706830866414,5.32133701639699,tool,0.545009051579655,0,2,1
52,1,tool,0,0,animals,1,t_353.jpg,353,tbd,436.256433759734,440.722259363797,4.41292192310765,tool,0.538010531467989,0,2,1
53,1,animal,0,0,animals,1,a_026.jpg,26,tbd,443.271936668514,448.154338437453,4.82696715147558,animal,0.657306753613739,0,1,1
54,1,animal,0,0,animals,1,a_052.jpg,52,tbd,450.703971480218,458.585650303953,7.83064644229851,animal,0.543512163708328,0,1,1
55,1,animal,0,0,animals,1,a_132.jpg,132,tbd,461.135492468401,467.217660290476,6.03271147244911,animal,0.534935288075758,0,1,1
56,1,tool,0,0,animals,1,t_331.jpg,331,tbd,469.783993239136,475.399591022447,5.55875383334542,tool,0.553341524263487,0,2,1
57,1,tool,0,0,animals,1,t_344.jpg,344,tbd,477.965911462295,483.648135670247,5.64205008299369,tool,0.581334642492038,0,2,1
58,1,tool,0,0,animals,1,t_322.jpg,322,tbd,486.197808484621,492.09655189424,5.85386254056342,tool,0.543302079809109,0,2,1
59,1,animal,0,0,animals,1,a_089.jpg,89,tbd,494.646345947872,500.978341693592,6.27726187510003,animal,0.536947923900698,0,1,1
60,1,animal,0,0,animals,1,a_177.jpg,177,tbd,503.544791070429,509.110397225021,5.51986711949081,animal,0.597309678752026,0,1,1
