trial,phase,object,toShock,seenBefore,shockedCategory,responseSide,filename,num,name,onsetFixationCross,onsetStimulus,interTrialTime,response,reactionTime,wasShocked,buttonPressed,isResponseCorrect
1,3,animal,0,0,animals,1,a_110.jpg,110,tbd,0.0154611160833156,4.51454861426464,4.42258420755222,animal,0.683217632598826,0,1,1
2,3,animal,0,0,animals,1,a_016.jpg,16,tbd,7.08090786350476,14.2961049799342,7.16459789582362,animal,1.05628301648176,0,1,1
3,3,tool,0,0,animals,1,t_259.jpg,259,tbd,16.8458637522999,22.4281005332123,5.53482170178592,tool,0.705546824767225,0,2,1
4,3,animal,0,0,animals,1,a_045.jpg,45,tbd,24.9778172887982,32.5096749885488,7.48902505330389,animal,0.731538533029379,0,1,1
5,3,animal,0,0,animals,1,a_136.jpg,136,tbd,35.0593375392818,39.4251834140359,4.29589395388509,animal,1.02246239541637,0,1,1
6,3,tool,0,0,animals,1,t_295.jpg,295,tbd,41.9748331352184,48.7901950472315,6.75405402989999,tool,1.12491245478486,0,2,1
7,3,tool,0,0,animals,1,t_349.jpg,349,tbd,51.3399015391769,55.7889884279539,4.40737342724901,tool,0.670398345164358,0,2,1
8,3,animal,0,0,animals,1,a_069.jpg,69,tbd,58.3385374371592,65.9538625925088,7.55890336518906,animal,0.953156519031836,0,1,1
9,3,animal,0,0,animals,1,a_085.jpg,85,tbd,68.5202083707209,76.4353960574299,7.8688817029713,animal,0.642072620825275,0,1,1
10,3,animal,0,0,animals,1,a_068.jpg,68,tbd,78.9850669473708,85.250610750345,6.20407891619216,animal,0.725333199912711,0,1,1
11,3,tool,0,0,animals,1,t_313.jpg,313,tbd,87.8002133229274,95.3154468111352,7.46206829889637,tool,0.66193404884325,0,2,1
12,3,tool,0,0,animals,1,t_252.jpg,252,tbd,97.8651366246631,102.064287821564,4.15162329995554,tool,1.34746250767421,0,2,1
13,3,tool,0,0,animals,1,t_193.jpg,193,tbd,104.613957749289,109.76296047621,5.08087302687212,tool,0.724146787177233,0,2,1
14,3,animal,0,0,animals,1,a_155.jpg,155,tbd,112.312604424094,119.511372979634,7.14205307144331,animal,0.553208735305816,0,1,1
15,3,animal,0,0,animals,1,a_081.jpg,81,tbd,122.077589500119,127.609789107406,5.48249807245739,animal,1.00733603395929,0,1,1
16,3,tool,0,0,animals,1,t_350.jpg,350,tbd,130.159499127478,134.208624761499,4.00144423046965,tool,0.934707945325499,0,2,1
17,3,tool,0,0,animals,1,t_181.jpg,181,tbd,136.775049762187,140.857594773064,4.02830059525472,tool,0.946086474174081,0,2,1
18,3,animal,0,0,animals,1,a_033.jpg,33,tbd,143.407229098784,148.306171045708,4.84622111622139,animal,0.974945266361829,0,1,1
19,3,tool,0,0,animals,1,t_317.jpg,317,tbd,150.855947779444,157.954608951643,7.04377704286541,animal,0.721957424284483,0,1,0
20,3,tool,0,0,animals,1,t_246.jpg,246,tbd,160.504299727389,167.036373605075,6.46147637533183,tool,0.906614435858501,0,2,1
21,3,tool,0,0,animals,1,t_197.jpg,197,tbd,169.586027495861,176.35131310412,6.71654614131727,tool,0.72912914333574,0,2,1
22,3,animal,0,0,animals,1,a_090.jpg,90,tbd,178.901085026775,185.149863493143,6.18746980084101,animal,0.635014764038715,0,1,1
23,3,animal,0,0,animals,1,a_169.jpg,169,tbd,187.716171744918,191.865372688404,4.08935227388488,animal,0.909925742991618,0,1,1
24,3,animal,0,0,animals,1,a_084.jpg,84,tbd,194.431713976272,199.630562075028,5.15518707282825,animal,0.585043662604221,0,1,1
25,3,tool,0,0,animals,1,t_346.jpg,346,tbd,202.197028130282,208.779096844075,6.51937021592271,tool,0.507038067635222,0,2,1
26,3,tool,0,0,animals,1,t_292.jpg,292,tbd,211.328783450215,217.810749912485,6.44049677039202,tool,0.644845728289511,0,2,1
27,3,animal,0,0,animals,1,a_144.jpg,144,tbd,220.360580530338,224.743025599011,4.32841584219705,animal,0.735905070736408,0,1,1
28,3,tool,0,0,animals,1,t_340.jpg,340,tbd,227.309336095957,233.908108885249,6.53807380605965,tool,0.691267213682295,0,2,1
29,3,tool,0,0,animals,1,t_188.jpg,188,tbd,236.457738720628,242.189956802469,5.67118518137878,tool,0.768883111033574,0,2,1
30,3,tool,0,0,animals,1,t_232.jpg,232,tbd,244.756306750283,249.838687542906,5.02257141861446,tool,0.58948813983443,0,2,1
31,3,animal,0,0,animals,1,a_159.jpg,159,tbd,252.388291398443,258.937057484294,6.49858506446203,animal,0.715555478300303,0,1,1
32,3,tool,0,0,animals,1,t_218.jpg,218,tbd,261.486716506901,266.002515136834,4.46799773581187,tool,0.77950662080184,0,2,1
33,3,tool,0,0,animals,1,t_334.jpg,334,tbd,268.568829482645,276.250721084485,7.63474899501271,tool,0.764819029993305,0,2,1
34,3,animal,0,0,animals,1,a_082.jpg,82,tbd,278.817060447922,285.282496033631,6.42191596822422,animal,0.580490775666476,0,1,1
35,3,animal,0,0,animals,1,a_113.jpg,113,tbd,287.848835397068,294.230969028389,6.33691721775103,animal,0.737511330529742,0,1,1
36,3,tool,0,0,animals,1,t_244.jpg,244,tbd,296.780607202974,302.962768225387,6.11677404522865,tool,0.51102709580482,0,2,1
37,3,animal,0,0,animals,1,a_173.jpg,173,tbd,305.529095400751,309.811553363123,4.22391096640813,animal,0.661609781938751,0,1,1
38,3,animal,0,0,animals,1,a_055.jpg,55,tbd,312.361253761032,318.893212493496,6.48498866159091,animal,0.540464180006893,0,1,1
39,3,tool,0,0,animals,1,t_209.jpg,209,tbd,321.442979925811,329.391534388216,7.89159337048038,tool,0.624594923394397,0,2,1
40,3,animal,0,0,animals,1,a_158.jpg,158,tbd,331.941192769345,338.489922932453,6.49196760481306,animal,0.631668175641607,0,1,1
41,3,animal,0,0,animals,1,a_058.jpg,58,tbd,341.039616274109,348.554859705218,7.46838432668506,animal,0.676233866470284,0,1,1
42,3,animal,0,0,animals,1,a_024.jpg,24,tbd,351.104514237482,356.619945300776,5.47769199189238,animal,0.741649181491084,0,1,1
43,3,tool,0,0,animals,1,t_327.jpg,327,tbd,359.169776560106,366.135015212207,6.91350690523053,tool,0.975996006594869,0,2,1
44,3,animal,0,0,animals,1,a_143.jpg,143,tbd,368.684841660455,375.883330211043,7.15835965857159,animal,0.532219269007328,0,1,1
45,3,tool,0,0,animals,1,t_210.jpg,210,tbd,378.449770927933,385.798379338601,7.3001956455249,tool,0.678674367823987,0,2,1
46,3,tool,0,0,animals,1,t_194.jpg,194,tbd,388.364730890111,393.980281204082,5.57035767156224,tool,0.791079517350227,0,2,1
47,3,animal,0,0,animals,1,a_104.jpg,104,tbd,396.529969734656,403.961876892326,7.38349912411564,animal,0.532072049909402,0,1,1
48,3,animal,0,0,animals,1,a_174.jpg,174,tbd,406.528220746106,413.51023596067,6.91508501259909,animal,0.52718976424876,0,1,1
49,3,tool,0,0,animals,1,t_264.jpg,264,tbd,416.059901398052,421.758826794854,5.6376653705468,tool,0.755833212420839,0,2,1
50,3,animal,0,0,animals,1,a_065.jpg,65,tbd,424.291800024072,429.157512471495,4.80811958003856,animal,0.54263590226401,0,1,1
51,3,animal,0,0,animals,1,a_118.jpg,118,tbd,431.707207096104,436.306260852565,4.55182966736892,animal,0.587318662746839,0,1,1
52,3,animal,0,0,animals,1,a_046.jpg,46,tbd,438.855897423457,446.204550416816,7.30525781746487,animal,0.580454211443794,0,1,1
53,3,tool,0,0,animals,1,t_315.jpg,315,tbd,448.770889459513,456.419442510669,7.59530433860969,tool,0.751065751241185,0,2,1
54,3,tool,0,0,animals,1,t_256.jpg,256,tbd,458.969126550901,464.801328210915,5.78633284074684,tool,0.555661424732534,0,2,1
55,3,tool,0,0,animals,1,t_280.jpg,280,tbd,467.35101417558,472.000005997383,4.60936676816659,tool,0.519287402263217,0,2,1
56,3,animal,0,0,animals,1,a_178.jpg,178,tbd,474.566397961977,478.798886747347,4.16941553720362,tool,0.797846464063696,0,2,0
57,3,animal,0,0,animals,1,a_025.jpg,25,tbd,481.365224186349,488.330620962668,6.89607808272893,animal,0.738520053984757,0,1,1
58,3,tool,0,0,animals,1,t_348.jpg,348,tbd,490.863593550408,498.878583597883,7.97744450716625,tool,0.95606177087393,0,2,1
59,3,tool,0,0,animals,1,t_248.jpg,248,tbd,501.428460722858,505.494179456762,4.01745176412621,tool,0.659943864731758,0,2,1
60,3,tool,0,0,animals,1,t_271.jpg,271,tbd,508.043952020895,512.259749560315,4.1594373068448,tool,0.614616419308732,0,2,1
