trial,phase,object,toShock,seenBefore,shockedCategory,responseSide,filename,num,name,onsetFixationCross,onsetStimulus,interTrialTime,response,reactionTime,wasShocked,buttonPressed,isResponseCorrect
1,3,tool,0,0,animals,1,t_295.jpg,295,tbd,0.0154432796393849,6.79735165790498,6.68539406060995,tool,1.04460436230238,0,2,1
2,3,animal,0,0,animals,1,a_082.jpg,82,tbd,9.38035316439618,16.1956615781351,6.7587699220068,animal,0.902613798960829,0,1,1
3,3,animal,0,0,animals,1,a_009.jpg,9,tbd,18.7452489368229,23.2610170597004,4.45790472049919,animal,0.696598161858219,0,1,1
4,3,animal,0,0,animals,1,a_081.jpg,81,tbd,25.8272730041185,30.6429691861881,4.75648279598219,animal,0.676823259930643,0,1,1
5,3,tool,0,0,animals,1,t_205.jpg,205,tbd,33.1925684120624,39.1747288237066,5.92135697359485,tool,0.643409112127756,0,2,1
6,3,tool,0,0,animals,1,t_288.jpg,288,tbd,41.7242825052444,46.5066742308004,4.73401741801129,tool,0.831819297252878,0,2,1
7,3,animal,0,0,animals,1,a_129.jpg,129,tbd,49.0563090582341,53.4386890448977,4.32253105877663,animal,0.753986591864759,0,1,1
8,3,tool,0,0,animals,1,t_214.jpg,214,tbd,55.9883472859692,60.7540284095417,4.70591829045959,tool,0.789065032362487,0,2,1
9,3,tool,0,0,animals,1,t_285.jpg,285,tbd,63.3036526527276,67.6026996535211,4.25128756357307,tool,0.743598955035395,0,2,1
10,3,tool,0,0,animals,1,t_246.jpg,246,tbd,70.1689998593365,75.9011799159848,5.66925663948345,tool,0.932428661232279,0,2,1
11,3,animal,0,0,animals,1,a_012.jpg,12,tbd,78.4675044976425,82.8331414881109,4.31214058052791,animal,0.735687390590556,0,1,1
12,3,tool,0,0,animals,1,t_337.jpg,337,tbd,85.3995789684059,91.4483213513563,5.99359852216821,tool,0.940935188666117,0,2,1
13,3,animal,0,0,animals,1,a_050.jpg,50,tbd,93.9979407835208,98.4470124327809,4.39786000224272,animal,0.936436883589067,0,1,1
14,3,animal,0,0,animals,1,a_076.jpg,76,tbd,101.013288583489,107.412016421118,6.33362321900354,animal,0.851707418551996,0,1,1
15,3,tool,0,0,animals,1,t_262.jpg,262,tbd,109.978276214353,116.143750977177,6.09804933258065,tool,0.894342049375609,0,2,1
16,3,animal,0,0,animals,1,a_059.jpg,59,tbd,118.709982866488,124.425512298553,5.65968962095929,animal,1.0509321384784,0,1,1
17,3,animal,0,0,animals,1,a_131.jpg,131,tbd,126.991769846645,134.44032960322,7.39684055423264,animal,0.941464721763168,0,1,1
18,3,tool,0,0,animals,1,t_228.jpg,228,tbd,136.989919527787,143.68862064821,6.63472428478567,tool,0.877416555098534,0,2,1
19,3,animal,0,0,animals,1,a_161.jpg,161,tbd,146.238145784353,154.236596956174,7.94045495804521,animal,1.25689902389695,0,1,1
20,3,tool,0,0,animals,1,t_333.jpg,333,tbd,156.786242688589,163.784810928599,6.93488336943451,tool,0.81014243817026,0,2,1
21,3,tool,0,0,animals,1,t_290.jpg,290,tbd,166.334478150244,173.566390874465,7.16328822811074,tool,0.919909421156262,0,2,1
22,3,animal,0,0,animals,1,a_010.jpg,10,tbd,176.132650667701,180.365074001668,4.16726864509641,animal,0.742503966548156,0,1,1
23,3,tool,0,0,animals,1,t_259.jpg,259,tbd,182.914707225427,187.230361230875,4.26390755140342,tool,1.52740030988343,0,2,1
24,3,animal,0,0,animals,1,a_080.jpg,80,tbd,189.780113767968,194.495680084531,4.66111832899628,animal,0.808419451013378,0,1,1
25,3,tool,0,0,animals,1,t_349.jpg,349,tbd,197.062024231009,202.394335275735,5.26833107045992,tool,0.780048215918214,0,2,1
26,3,tool,0,0,animals,1,t_201.jpg,201,tbd,204.94398229109,211.242750894107,6.24083593701246,tool,0.972960234202674,0,2,1
27,3,animal,0,0,animals,1,a_002.jpg,2,tbd,213.792302971971,218.124745838686,4.27651025202351,animal,0.914155439474598,0,1,1
28,3,tool,0,0,animals,1,t_242.jpg,242,tbd,220.690980293874,228.189549335721,7.42974208677372,tool,1.0257361775557,0,2,1
29,3,tool,0,0,animals,1,t_315.jpg,315,tbd,230.73915625923,236.104743856545,5.30862431781364,tool,0.85583270909774,0,2,1
30,3,tool,0,0,animals,1,t_266.jpg,266,tbd,238.654366496057,245.203041364339,6.47845726780096,tool,0.737878971238843,0,2,1
31,3,animal,0,0,animals,1,a_088.jpg,88,tbd,247.75262551568,252.268254118935,4.46055292353432,animal,0.753008030097135,0,1,1
32,3,animal,0,0,animals,1,a_052.jpg,52,tbd,254.834647979302,261.833266253935,6.93902988820718,animal,0.830361237011857,0,1,1
33,3,tool,0,0,animals,1,t_327.jpg,327,tbd,264.382901402103,269.865043371497,5.42868253572627,tool,1.0789117564259,0,2,1
34,3,animal,0,0,animals,1,a_070.jpg,70,tbd,272.414719894451,279.446633003554,6.96939467415613,animal,1.21466787740837,0,1,1
35,3,animal,0,0,animals,1,a_047.jpg,47,tbd,282.012906267649,288.361682231529,6.29207870326613,animal,0.83793282260558,0,1,1
36,3,animal,0,0,animals,1,a_094.jpg,94,tbd,290.911310002798,297.776617759031,6.80498950815115,animal,0.861382703468735,0,1,1
37,3,tool,0,0,animals,1,t_232.jpg,232,tbd,300.326209608006,304.408721512878,4.02676108365988,tool,0.856560135544896,0,2,1
38,3,tool,0,0,animals,1,t_298.jpg,298,tbd,306.958263006495,312.323809229025,5.31298570783552,tool,0.847727420855335,0,2,1
39,3,animal,0,0,animals,1,a_162.jpg,162,tbd,314.890162356077,320.039104845447,5.08926121867528,animal,0.977717051499894,0,1,1
40,3,animal,0,0,animals,1,a_128.jpg,128,tbd,322.605427502696,330.170502822445,7.49698106128338,animal,0.739690160456121,0,1,1
41,3,tool,0,0,animals,1,t_233.jpg,233,tbd,332.720177741724,338.269127800434,5.47483548148863,tool,0.721388393303641,0,2,1
42,3,tool,0,0,animals,1,t_279.jpg,279,tbd,340.818672180664,344.984489167483,4.10589660321467,tool,0.811254746334271,0,2,1
43,3,animal,0,0,animals,1,a_170.jpg,170,tbd,347.534072035884,353.649526608456,6.05550601774721,animal,0.953493237649127,0,1,1
44,3,tool,0,0,animals,1,t_302.jpg,302,tbd,356.215808532389,364.19758502452,7.9237995176153,tool,1.10293575251762,0,2,1
45,3,tool,0,0,animals,1,t_258.jpg,258,tbd,366.763842893346,371.446205143377,4.6190110052091,tool,0.972568617055003,0,2,1
46,3,animal,0,0,animals,1,a_015.jpg,15,tbd,373.99582040599,381.327686591598,7.27086708813082,animal,0.856466160258606,0,1,1
47,3,animal,0,0,animals,1,a_085.jpg,85,tbd,383.877324626379,391.875725763576,7.94583894367986,animal,0.816805702909733,0,1,1
48,3,animal,0,0,animals,1,a_163.jpg,163,tbd,394.442031101148,402.123838800771,7.61802834151078,animal,0.791083416237598,0,1,1
49,3,tool,0,0,animals,1,t_252.jpg,252,tbd,404.673474911143,412.371937404901,7.64249809062259,tool,0.685376614640518,0,2,1
50,3,animal,0,0,animals,1,a_173.jpg,173,tbd,414.938232799695,420.453794690118,5.45254400629559,animal,1.18183361806041,0,1,1
51,3,tool,0,0,animals,1,t_209.jpg,209,tbd,423.020043899106,430.435097457001,7.35968908295947,tool,0.764934873063794,0,2,1
52,3,tool,0,0,animals,1,t_189.jpg,189,tbd,433.001499977207,440.750038789802,7.68988880033905,tool,0.902342778084858,0,2,1
53,3,tool,0,0,animals,1,t_241.jpg,241,tbd,443.316260094864,448.148581563471,4.77576244339124,tool,0.715121877467936,0,2,1
54,3,animal,0,0,animals,1,a_164.jpg,164,tbd,450.714891070595,457.596834376876,6.81730271796886,animal,0.890178591392214,0,1,1
55,3,tool,0,0,animals,1,t_206.jpg,206,tbd,460.146479467822,464.445557900622,4.23972605533225,tool,0.78671949902764,0,2,1
56,3,animal,0,0,animals,1,a_077.jpg,77,tbd,467.011878633462,471.994226354209,4.91720025990169,animal,1.54838887216101,0,1,1
57,3,animal,0,0,animals,1,a_135.jpg,135,tbd,474.543766564887,481.142488885877,6.53719567569193,animal,0.761421544449149,0,1,1
58,3,animal,0,0,animals,1,a_126.jpg,126,tbd,483.692084583669,488.074531283165,4.32286687575595,animal,0.647558137045962,0,1,1
59,3,tool,0,0,animals,1,t_299.jpg,299,tbd,490.624151036064,496.389644850534,5.71018122534868,tool,0.796766515536547,0,2,1
60,3,animal,0,0,animals,1,a_171.jpg,171,tbd,498.939245359347,503.83824437822,4.8323871476988,animal,1.00344831874554,0,1,1
