trial,phase,object,toShock,seenBefore,shockedCategory,responseSide,filename,num,name,onsetFixationCross,onsetStimulus,interTrialTime,response,reactionTime,wasShocked,buttonPressed,isResponseCorrect
1,1,tool,0,0,animals,2,t_351.jpg,351,tbd,0.0394835222508618,7.63779915696205,7.42517096247531,tool,0.865752488065255,0,1,1
2,1,animal,0,0,animals,2,a_148.jpg,148,tbd,10.2209463310894,16.9528927903654,6.68402862993229,animal,0.883974333817264,0,2,1
3,1,tool,0,0,animals,2,t_277.jpg,277,tbd,19.5191905383975,24.1682359866887,4.60689113089677,tool,0.798968026588341,0,1,1
4,1,animal,0,0,animals,2,a_030.jpg,30,tbd,26.7344798514533,33.71637379058,6.92924645760191,animal,0.717073157333857,0,2,1
5,1,tool,0,0,animals,2,t_244.jpg,244,tbd,36.2659953087345,41.7482313103909,5.42645841553028,tool,0.798572882625422,0,1,1
6,1,animal,0,0,animals,2,a_169.jpg,169,tbd,44.3145091729315,48.4969367488483,4.13199806050646,animal,0.546097700200107,0,2,1
7,1,animal,0,0,animals,2,a_137.jpg,137,tbd,51.0632114040516,58.3117662580198,7.19831114836472,animal,0.732502695179051,0,2,1
8,1,tool,0,0,animals,2,t_207.jpg,207,tbd,60.8780303290098,65.2937541721312,4.37264573059598,tool,0.676822356381535,0,1,1
9,1,tool,0,0,animals,2,t_275.jpg,275,tbd,67.8433872367003,73.72555158644,5.83697554401877,tool,1.1343689164961,0,1,1
10,1,tool,0,0,animals,2,t_278.jpg,278,tbd,76.2917592082923,82.940439340858,6.5975541259494,tool,0.655785751361009,0,1,1
11,1,animal,0,0,animals,2,a_147.jpg,147,tbd,85.4900483503969,89.8058036574979,4.25429823836084,animal,0.947637093840171,0,2,1
12,1,tool,0,0,animals,2,t_238.jpg,238,tbd,92.372069973624,97.570995451461,5.14515491242593,tool,0.575731573018288,0,1,1
13,1,animal,0,0,animals,2,a_179.jpg,179,tbd,100.120547049661,106.16931685938,5.98909598284405,animal,0.622633108723448,0,2,1
14,1,tool,0,0,animals,2,t_189.jpg,189,tbd,108.718980714387,115.567585731112,6.78797096724272,tool,1.06778138553329,0,1,1
15,1,tool,0,0,animals,2,t_306.jpg,306,tbd,118.133866159523,123.366127418961,5.18644583102226,tool,1.12650035574711,0,1,1
16,1,tool,0,0,animals,2,t_318.jpg,318,tbd,125.915692487978,133.147611203785,7.17700506749444,tool,0.617270440655034,0,1,1
17,1,animal,0,0,animals,2,a_093.jpg,93,tbd,135.697214119383,141.745934536106,5.98159247243604,animal,0.872324963786468,0,2,1
18,1,tool,0,0,animals,2,t_298.jpg,298,tbd,144.295548356651,150.677690415396,6.31432453628797,tool,0.798805093850319,0,1,1
19,1,animal,0,0,animals,2,a_084.jpg,84,tbd,153.243882962763,158.292887228842,4.99054519834817,animal,0.996954075312374,0,2,1
20,1,animal,0,0,animals,2,a_025.jpg,25,tbd,160.859097416565,167.924400729648,7.00371542067665,animal,0.558674311462141,0,2,1
21,1,tool,0,0,animals,2,t_356.jpg,356,tbd,170.473994664701,177.655835939348,7.12434439665741,tool,0.512710921935195,0,1,1
22,1,animal,0,0,animals,2,a_023.jpg,23,tbd,180.205447835491,186.437633722501,6.15996975842082,animal,0.625272747372037,0,2,1
23,1,tool,0,0,animals,2,t_265.jpg,265,tbd,188.987114117812,196.13567381486,7.09653432378701,tool,0.602379735486579,0,1,1
24,1,tool,0,0,animals,2,t_279.jpg,279,tbd,198.685260373037,202.951045364045,4.2169277969717,tool,0.634250726114374,0,1,1
25,1,animal,0,0,animals,2,a_121.jpg,121,tbd,205.517360431699,212.88251322444,7.30367126001512,animal,1.31722338901591,0,2,1
26,1,animal,0,0,animals,2,a_130.jpg,130,tbd,215.44875067453,220.147759062038,4.6513554078136,animal,0.557205671684301,0,2,1
27,1,animal,0,0,animals,2,a_081.jpg,81,tbd,222.697405918158,229.262736653975,6.51295119813546,animal,0.726545066029985,0,2,1
28,1,tool,0,0,animals,2,t_283.jpg,283,tbd,231.829044986221,238.294374150443,6.39420723080246,tool,0.59721720526943,0,1,1
29,1,animal,0,0,animals,2,a_054.jpg,54,tbd,240.860600374852,246.276192075674,5.35329185948848,animal,0.659677855249129,0,2,1
30,1,tool,0,0,animals,2,t_241.jpg,241,tbd,248.842464165008,255.924341393907,7.01538321372863,tool,0.733791403330883,0,1,1
31,1,tool,0,0,animals,2,t_350.jpg,350,tbd,258.490630482128,264.789303189708,6.25173068634796,tool,0.823213893372895,0,1,1
32,1,animal,0,0,animals,2,a_013.jpg,13,tbd,267.338954856834,275.054090698796,7.64835316882495,animal,0.72769650014277,0,2,1
33,1,animal,0,0,animals,2,a_149.jpg,149,tbd,277.620344185573,283.835752490845,6.15101292859395,animal,1.49944280873808,0,2,1
34,1,animal,0,0,animals,2,a_092.jpg,92,tbd,286.40193798207,292.200827345288,5.73982549027629,animal,0.724637662501095,0,2,1
35,1,tool,0,0,animals,2,t_344.jpg,344,tbd,294.767123489651,299.099469711456,4.28053489754645,tool,0.6042130495224,0,1,1
36,1,animal,0,0,animals,2,a_161.jpg,161,tbd,301.649127151789,308.514384984829,6.80944099700355,animal,0.483618768397378,0,2,1
37,1,animal,0,0,animals,2,a_035.jpg,35,tbd,311.080709674495,318.912480018876,7.76851124197552,animal,0.534891584192565,0,2,1
38,1,tool,0,0,animals,2,t_341.jpg,341,tbd,321.478701111546,327.010900373152,5.48453398250746,tool,0.504912281140605,0,1,1
39,1,tool,0,0,animals,2,t_245.jpg,245,tbd,329.577173745421,336.275791479238,6.63238202429843,tool,0.486177902878126,0,1,1
40,1,animal,0,0,animals,2,a_078.jpg,78,tbd,338.842080888193,345.890634202639,6.98812395496415,animal,0.841566919222942,0,2,1
41,1,tool,0,0,animals,2,t_352.jpg,352,tbd,348.44026309767,353.989108440183,5.49024769309873,tool,0.896426500389907,0,1,1
42,1,tool,0,0,animals,2,t_338.jpg,338,tbd,356.538722902196,363.070725233289,6.47711352932813,tool,0.617096923703684,0,1,1
43,1,tool,0,0,animals,2,t_285.jpg,285,tbd,365.620351562449,369.969495572217,4.2868103186499,tool,0.852648590540866,0,1,1
44,1,animal,0,0,animals,2,a_028.jpg,28,tbd,372.535718268555,379.984237136198,7.39823414535456,animal,0.983183693084356,0,2,1
45,1,animal,0,0,animals,2,a_153.jpg,153,tbd,382.53380861989,388.765842479109,6.16832313142915,animal,0.488869821125718,0,2,1
46,1,animal,0,0,animals,2,a_120.jpg,120,tbd,391.31550825852,397.031063940943,5.6523489211398,animal,0.475913781853706,0,2,1
47,1,tool,0,0,animals,2,t_264.jpg,264,tbd,399.58058603164,405.029418256143,5.37366856241106,tool,0.539858146096776,0,1,1
48,1,animal,0,0,animals,2,a_046.jpg,46,tbd,407.579082111151,415.027554472402,7.40091049525149,animal,0.5941404065386,0,2,1
49,1,tool,0,0,animals,2,t_274.jpg,274,tbd,417.593829448339,424.525756920178,6.87061316880345,tool,0.807305500059783,0,1,1
50,1,tool,0,0,animals,2,t_314.jpg,314,tbd,427.075435528938,434.357219360173,7.22511182172638,tool,0.734155115387694,0,1,1
51,1,animal,0,0,animals,2,a_132.jpg,132,tbd,436.923522560678,444.921874630742,7.93877383499586,tool,0.896869112945751,0,1,0
52,1,tool,0,0,animals,2,t_250.jpg,250,tbd,447.488123627246,453.936873102446,6.39284405857057,tool,0.834177534675746,0,1,1
53,1,animal,0,0,animals,2,a_057.jpg,57,tbd,456.503150002785,463.301813248719,6.74040796708834,animal,0.510480860267762,0,2,1
54,1,animal,0,0,animals,2,a_049.jpg,49,tbd,465.851356187109,472.266741656139,6.35838475937568,animal,0.455926296884172,0,2,1
55,1,animal,0,0,animals,2,a_018.jpg,18,tbd,474.816361891358,481.564976562168,6.69097359507287,animal,0.606028402469065,0,2,1
56,1,tool,0,0,animals,2,t_321.jpg,321,tbd,484.11459519372,489.730111137233,5.55155927893105,tool,0.86518831742319,0,1,1
57,1,tool,0,0,animals,2,t_313.jpg,313,tbd,492.296358209335,496.828779418687,4.46956312568265,tool,0.545748421161306,0,1,1
58,1,animal,0,0,animals,2,a_099.jpg,99,tbd,499.395017830978,507.11015271074,7.65695427200027,animal,0.657649855835643,0,2,1
59,1,animal,0,0,animals,2,a_008.jpg,8,tbd,509.659768455687,516.991580655821,7.27134450405653,animal,0.538641923769546,0,2,1
60,1,tool,0,0,animals,2,t_340.jpg,340,tbd,519.541196721503,527.339654697846,7.74869203985856,tool,0.508919207706413,0,1,1
