trial,phase,object,toShock,seenBefore,shockedCategory,responseSide,filename,num,name,onsetFixationCross,onsetStimulus,interTrialTime,response,reactionTime,wasShocked,buttonPressed,isResponseCorrect
1,2,tool,0,0,animals,2,t_230.jpg,230,tbd,0.02850575246066,9.10987044884951,8.95302986527604,0,0.925652095364512,0,2,1
2,2,animal,1,0,animals,2,a_129.jpg,129,tbd,13.6758981390758,20.4412579975169,6.70936923635188,1,0.798642177314832,1,1,1
3,2,animal,1,0,animals,2,a_174.jpg,174,tbd,25.1904849490293,31.4558802485481,6.209674454264,1,0.785345518815575,1,1,1
4,2,animal,1,0,animals,2,a_106.jpg,106,tbd,36.2217301881378,43.3869510405775,7.10913260668245,1,0.581798909307963,1,1,1
5,2,tool,0,0,animals,2,t_246.jpg,246,tbd,48.152823110795,55.0847117738517,6.86950889586603,0,0.676320424287496,0,2,1
6,2,animal,0,0,animals,2,a_080.jpg,80,tbd,59.633969259216,68.0822876682741,8.37876225386317,1,0.606216689374833,0,1,0
7,2,tool,0,0,animals,2,t_359.jpg,359,tbd,72.6315137217321,80.0133491590254,7.33025066744163,0,0.838675520793913,0,2,1
8,2,animal,1,0,animals,2,a_178.jpg,178,tbd,84.5625665526723,92.960872950252,8.32940775446507,1,0.673598357068386,1,1,1
9,2,tool,0,0,animals,2,t_286.jpg,286,tbd,97.7267418131323,104.142086869711,6.34744871002158,0,0.834768021686614,0,2,1
10,2,tool,0,0,animals,2,t_262.jpg,262,tbd,108.707987549378,118.622693223254,9.85113346952571,0,0.578663416303243,0,2,1
11,2,animal,1,0,animals,2,a_072.jpg,72,tbd,123.188602562732,129.420651496437,6.17485761923584,1,0.62207280308894,1,1,1
12,2,tool,0,0,animals,2,t_280.jpg,280,tbd,134.16980981093,143.21791538108,8.99153645571362,0,0.77728997029817,0,2,1
13,2,animal,1,0,animals,2,a_170.jpg,170,tbd,147.78394339204,156.448866443206,8.61524516264086,1,0.68378518126201,1,1,1
14,2,animal,0,0,animals,2,a_089.jpg,89,tbd,161.214744286631,170.962721980241,9.68573804866917,1,0.925452598980428,0,1,0
15,2,tool,0,0,animals,2,t_229.jpg,229,tbd,175.512076327193,184.376935808933,8.81829804320135,0,0.874625282344823,0,2,1
16,2,animal,1,0,animals,2,a_142.jpg,142,tbd,188.926150315976,197.541082844823,8.55365158787123,1,0.64400778330446,1,1,1
17,2,tool,0,0,animals,2,t_204.jpg,204,tbd,202.306987950616,209.905274719291,7.54581085696548,0,0.682232188511989,0,2,1
18,2,animal,1,0,animals,2,a_024.jpg,24,tbd,214.471330634086,220.803384346723,6.2720118104678,1,0.833484766008496,1,1,1
19,2,animal,0,0,animals,2,a_083.jpg,83,tbd,225.569223381366,233.367606626749,7.74427504814969,1,0.526759717248751,0,1,0
20,2,tool,0,0,animals,2,t_200.jpg,200,tbd,237.916891374481,244.598869442066,6.61821593941543,0,0.761837660357742,0,2,1
21,2,animal,1,0,animals,2,a_053.jpg,53,tbd,249.148097419927,258.762761173904,9.56860867609149,1,0.69734195482215,1,1,1
22,2,animal,0,0,animals,2,a_015.jpg,15,tbd,263.51206830885,271.343784769964,7.77600180320438,1,0.686770891612014,0,1,0
23,2,tool,0,0,animals,2,t_342.jpg,342,tbd,275.909684487429,282.658331231613,6.69262145129629,0,0.695700118827062,0,2,1
24,2,tool,0,0,animals,2,t_237.jpg,237,tbd,287.224177065811,293.772916566191,6.48551685336624,0,0.669412781811388,0,2,1
25,2,tool,0,0,animals,2,t_307.jpg,307,tbd,298.322139091578,304.4708639665,6.10196102227152,0,0.758845535332966,0,2,1
26,2,animal,0,0,animals,2,a_172.jpg,172,tbd,309.020096113899,316.718550594244,7.63419086846744,1,0.660634940920772,0,1,0
27,2,tool,0,0,animals,2,t_219.jpg,219,tbd,321.284428501816,328.666254317097,7.32607745027414,0,0.624315694105917,0,2,1
28,2,tool,0,0,animals,2,t_290.jpg,290,tbd,333.215521424474,342.596979037426,9.32297140826841,0,0.562154609435765,0,2,1
29,2,tool,0,0,animals,2,t_319.jpg,319,tbd,347.146172696776,356.477655503363,9.26978071352478,0,0.493853398120336,0,2,1
30,2,animal,1,0,animals,2,a_000.jpg,0,tbd,361.026929346148,367.225600802866,6.12964234661558,1,0.700347550663537,1,1,1
31,2,animal,1,0,animals,2,a_040.jpg,40,tbd,371.991522266079,380.589797809073,8.54464940923393,1,0.595590459962295,1,1,1
32,2,tool,0,0,animals,2,t_302.jpg,302,tbd,385.355651918201,393.370655842379,7.95418699084717,0,0.583077353980116,0,2,1
33,2,animal,0,0,animals,2,a_117.jpg,117,tbd,397.919892159316,406.801525053255,8.83263391663069,1,0.725784943278086,0,1,0
34,2,animal,1,0,animals,2,a_143.jpg,143,tbd,411.35072256141,417.482810656704,6.07683027913002,1,0.852882742371094,1,1,1
35,2,animal,0,0,animals,2,a_020.jpg,20,tbd,422.248671501241,432.113295564418,9.81154271689103,1,0.716888110170657,0,1,0
36,2,tool,0,0,animals,2,t_254.jpg,254,tbd,436.679209714902,446.294003366042,9.55038165247126,0,0.625852329435929,0,2,1
37,2,animal,1,0,animals,2,a_118.jpg,118,tbd,450.843254115997,459.141561187118,8.23811900510552,1,0.554429416667062,1,1,1
38,2,tool,0,0,animals,2,t_210.jpg,210,tbd,463.907460519703,470.972658952855,7.00303441330837,0,0.769896736946066,0,2,1
39,2,animal,1,0,animals,2,a_011.jpg,11,tbd,475.538606780381,483.436970108198,7.83617389007171,1,0.781995134207591,1,1,1
40,2,tool,0,0,animals,2,t_258.jpg,258,tbd,488.186175891284,495.451379712762,7.20533607841474,0,0.67099464059811,0,2,1
41,2,tool,0,0,animals,2,t_288.jpg,288,tbd,500.000599030812,509.282039035482,9.23546976472248,0,0.678825354766559,0,2,1
42,2,animal,0,0,animals,2,a_039.jpg,39,tbd,513.831333725959,523.462726951614,9.57293132345818,1,0.568546191329915,0,1,0
43,2,animal,1,0,animals,2,a_058.jpg,58,tbd,528.011993417523,534.477415915262,6.40805138236004,1,0.661314896441127,1,1,1
44,2,tool,0,0,animals,2,t_334.jpg,334,tbd,539.243209084981,548.974520491459,9.68265299006353,0,0.637714666667762,0,2,1
45,2,animal,1,0,animals,2,a_163.jpg,163,tbd,553.52383089789,560.872310988824,7.28542342049462,1,0.756321360829588,1,1,1
46,2,animal,0,0,animals,2,a_036.jpg,36,tbd,565.62154339281,572.820080141359,7.14934930592315,1,0.747987736162941,0,1,0
47,2,tool,0,0,animals,2,t_270.jpg,270,tbd,577.385995254044,585.150954195315,7.71839029889616,0,0.69455317498614,0,2,1
48,2,tool,0,0,animals,2,t_289.jpg,289,tbd,589.700315598409,599.398422724119,9.63965445589313,0,0.98354966648003,0,2,1
49,2,tool,0,0,animals,2,t_296.jpg,296,tbd,603.964273048589,612.412441033525,8.40393166773616,0,0.72996859413206,0,2,1
50,2,animal,1,0,animals,2,a_114.jpg,114,tbd,616.961811417164,624.493623232418,7.47050464898431,1,0.96222408036283,1,1,1
51,2,animal,0,0,animals,2,a_128.jpg,128,tbd,629.242835430178,638.157694735514,8.84605438848933,1,0.708653271494768,0,1,0
52,2,animal,1,0,animals,2,a_061.jpg,61,tbd,642.706952541611,650.488700931769,7.71163912666497,1,0.793975180720281,1,1,1
53,2,tool,0,0,animals,2,t_329.jpg,329,tbd,655.237862132865,662.403112813543,7.09531700439331,0,0.708041311526358,0,2,1
54,2,tool,0,0,animals,2,t_182.jpg,182,tbd,666.969015417611,675.683948876587,8.66093013958048,0,0.593590043649783,0,2,1
55,2,tool,0,0,animals,2,t_281.jpg,281,tbd,680.23317108124,686.581878572394,6.27674649638092,0,0.648113495861253,0,2,1
56,2,animal,1,0,animals,2,a_073.jpg,73,tbd,691.147775403256,697.696288786352,6.49722382272527,1,0.621078849240803,1,1,1
57,2,tool,0,0,animals,2,t_257.jpg,257,tbd,702.462310959958,711.543761933722,9.02915714613935,0,0.541079516366608,0,2,1
58,2,tool,0,0,animals,2,t_214.jpg,214,tbd,716.093039625311,724.674679030145,8.52608035659888,0,0.563557498797763,0,2,1
59,2,tool,0,0,animals,2,t_345.jpg,345,tbd,729.223902196999,739.18865388013,9.907164189243,0,0.59814606637201,0,2,1
60,2,animal,1,0,animals,2,a_150.jpg,150,tbd,743.737837596735,753.469207376753,9.67518200216241,1,0.712017768387341,1,1,1
