trial,phase,object,toShock,seenBefore,shockedCategory,responseSide,filename,num,name,onsetFixationCross,onsetStimulus,interTrialTime,response,reactionTime,wasShocked,buttonPressed,isResponseCorrect
1,3,tool,0,0,tools,2,t_337.jpg,337,tbd,0.0154676995962291,7.84701827704885,7.75640642292003,tool,1.33715328832113,0,1,1
2,3,tool,0,0,tools,2,t_311.jpg,311,tbd,10.4135234639862,17.1953337090536,6.74337676748303,tool,1.28318116923401,0,1,1
3,3,animal,0,0,tools,2,a_117.jpg,117,tbd,19.7451702621456,27.6269079568001,7.8345550281203,animal,0.62506905799728,0,2,1
4,3,animal,0,0,tools,2,a_073.jpg,73,tbd,30.1765851042537,34.3590182821799,4.12473994423563,animal,0.700265219946232,0,2,1
5,3,tool,0,0,tools,2,t_269.jpg,269,tbd,36.9253233300469,41.6743421995689,4.70581704191544,tool,0.614216003695219,0,1,1
6,3,animal,0,0,tools,2,a_062.jpg,62,tbd,44.2406501340565,49.5062423789241,5.21867305571615,animal,0.614638733336506,0,2,1
7,3,animal,0,0,tools,2,a_173.jpg,173,tbd,52.0558512096759,56.1717156949981,4.06339202044375,animal,0.453343320368731,0,2,1
8,3,tool,0,0,tools,2,t_330.jpg,330,tbd,58.7380124037363,63.9036348619065,5.12220315921703,tool,0.584832765598549,0,1,1
9,3,tool,0,0,tools,2,t_356.jpg,356,tbd,66.4699293254953,72.9685755001447,6.45022179767377,tool,0.663191060722056,0,1,1
10,3,animal,0,0,tools,2,a_012.jpg,12,tbd,75.5182738161539,81.2171216052584,5.65921507796575,animal,0.608042162385573,0,2,1
11,3,animal,0,0,tools,2,a_016.jpg,16,tbd,83.7668029222768,88.9323394232806,5.11899259068573,animal,0.682045829035815,0,2,1
12,3,animal,0,0,tools,2,a_165.jpg,165,tbd,91.4820303623692,98.2806182914173,6.74552207468763,animal,0.488159500330767,0,2,1
13,3,tool,0,0,tools,2,t_218.jpg,218,tbd,100.830312117128,107.795565857547,6.91764116816135,tool,1.21370115876471,0,1,1
14,3,tool,0,0,tools,2,t_251.jpg,251,tbd,110.361909714432,118.143699753151,7.74438164760621,tool,0.851039860785932,0,1,1
15,3,tool,0,0,tools,2,t_228.jpg,228,tbd,120.709999027776,126.475491203108,5.71640925327214,tool,0.556442845936544,0,1,1
16,3,animal,0,0,tools,2,a_097.jpg,97,tbd,129.02511190108,133.490881705226,4.41550853449414,animal,0.708399077061586,0,2,1
17,3,animal,0,0,tools,2,a_115.jpg,115,tbd,136.057175527343,141.372787144646,5.25437363088774,animal,0.586828383066859,0,2,1
18,3,animal,0,0,tools,2,a_072.jpg,72,tbd,143.939058836001,150.454405076594,6.45939560798388,animal,0.529571930506791,0,2,1
19,3,tool,0,0,tools,2,t_204.jpg,204,tbd,153.020751178629,160.33594166997,7.25989637396729,tool,0.569364966179819,0,1,1
20,3,tool,0,0,tools,2,t_273.jpg,273,tbd,162.902256339908,168.434474881509,5.47468967625315,tool,1.13920323841558,0,1,1
21,3,animal,0,0,tools,2,a_164.jpg,164,tbd,170.984120917601,176.383030480401,5.34387417468369,animal,0.497013409071769,0,2,1
22,3,animal,0,0,tools,2,a_138.jpg,138,tbd,178.932683251941,185.298063747106,6.31634405002782,animal,0.671260129228358,0,2,1
23,3,tool,0,0,tools,2,t_207.jpg,207,tbd,187.847683803607,192.513382596871,4.61712309565007,tool,0.551250776576126,0,1,1
24,3,animal,0,0,tools,2,a_057.jpg,57,tbd,195.079687965473,202.22826652904,7.09673770282762,animal,0.817832170313523,0,2,1
25,3,animal,0,0,tools,2,a_086.jpg,86,tbd,204.794584727069,212.093149563148,7.25012142149224,animal,0.625333664941536,0,2,1
26,3,tool,0,0,tools,2,t_354.jpg,354,tbd,214.659473855156,221.02484536972,6.30516951229261,tool,0.629002560508525,0,1,1
27,3,animal,0,0,tools,2,a_053.jpg,53,tbd,223.591157473773,229.706415447903,6.06736516367493,animal,0.578793312542984,0,2,1
28,3,tool,0,0,tools,2,t_351.jpg,351,tbd,232.256200683285,240.304471725471,7.99754776144347,tool,0.549169201943187,0,1,1
29,3,tool,0,0,tools,2,t_191.jpg,191,tbd,242.870948687667,247.170036964393,4.25102898265003,tool,0.571800633014391,0,1,1
30,3,tool,0,0,tools,2,t_241.jpg,241,tbd,249.719698716533,256.684863613167,6.92656660479292,tool,0.682377469739549,0,1,1
31,3,animal,0,0,tools,2,a_056.jpg,56,tbd,259.234619661601,266.733109958705,7.45442599191529,animal,0.602521338941187,0,2,1
32,3,animal,0,0,tools,2,a_116.jpg,116,tbd,269.282758239946,275.581337188395,6.26093589177065,animal,0.776735664792795,0,2,1
33,3,animal,0,0,tools,2,a_146.jpg,146,tbd,278.131140064239,285.729637674117,7.53532524375311,animal,0.722723453744038,0,2,1
34,3,tool,0,0,tools,2,t_318.jpg,318,tbd,288.279307765385,294.078127586338,5.75065812439848,tool,0.959704150586731,0,1,1
35,3,animal,0,0,tools,2,a_027.jpg,27,tbd,296.627767528452,302.726380923914,6.05007208796244,animal,0.795794421005667,0,2,1
36,3,animal,0,0,tools,2,a_137.jpg,137,tbd,305.292844415211,310.108374244914,4.77609572245109,animal,0.482082521198208,0,2,1
37,3,tool,0,0,tools,2,t_197.jpg,197,tbd,312.674837415476,317.407172255839,4.68082008963208,tool,0.639527181462654,0,1,1
38,3,animal,0,0,tools,2,a_095.jpg,95,tbd,319.956811556482,324.822480072296,4.81231579537519,animal,0.766595285195763,0,2,1
39,3,animal,0,0,tools,2,a_147.jpg,147,tbd,327.388843173323,331.871167429408,4.42346376869699,animal,0.629111931378247,0,2,1
40,3,animal,0,0,tools,2,a_055.jpg,55,tbd,334.437505192315,339.036552543167,4.55857448292151,animal,0.520013365451632,0,2,1
41,3,tool,0,0,tools,2,t_283.jpg,283,tbd,341.602859194712,349.384706003649,7.72739502873869,tool,0.574359141619425,0,1,1
42,3,tool,0,0,tools,2,t_288.jpg,288,tbd,351.934304250122,358.682974800684,6.69130083800806,tool,0.706507057222552,0,1,1
43,3,animal,0,0,tools,2,a_118.jpg,118,tbd,361.232596460864,367.031453807892,5.74532480636921,animal,0.77336665709754,0,2,1
44,3,tool,0,0,tools,2,t_274.jpg,274,tbd,369.581076430278,374.913163598541,5.27357477679938,tool,0.658985895081059,0,1,1
45,3,tool,0,0,tools,2,t_317.jpg,317,tbd,377.462961021879,384.111675577377,6.59832361680929,tool,0.660804787184134,0,1,1
46,3,tool,0,0,tools,2,t_272.jpg,272,tbd,386.661297879028,391.843470940309,5.1377765621855,tool,1.104338627365,0,1,1
47,3,animal,0,0,tools,2,a_119.jpg,119,tbd,394.393208065338,399.925243146125,5.48473624942103,animal,0.698874830725799,0,2,1
48,3,tool,0,0,tools,2,t_203.jpg,203,tbd,402.491700543444,406.807463868729,4.26583587498576,tool,0.555871294936878,0,1,1
49,3,animal,0,0,tools,2,a_096.jpg,96,tbd,409.357156411495,414.156130827051,4.74503215630621,animal,0.681571781684397,0,2,1
50,3,animal,0,0,tools,2,a_063.jpg,63,tbd,416.722479494972,423.371097509028,6.59311347787209,animal,0.496905962615529,0,2,1
51,3,tool,0,0,tools,2,t_333.jpg,333,tbd,425.920774977217,431.169653364507,5.20217677076629,tool,0.874671666476388,0,1,1
52,3,animal,0,0,tools,2,a_000.jpg,0,tbd,433.719344624331,440.434653852025,6.67313498663448,animal,0.586045787981675,0,2,1
53,3,tool,0,0,tools,2,t_350.jpg,350,tbd,443.000955692535,449.199760503057,6.14855031798856,tool,0.785284553893689,0,1,1
54,3,animal,0,0,tools,2,a_082.jpg,82,tbd,451.766028666319,458.19796053436,6.39309692333031,animal,0.575456378417584,0,2,1
55,3,tool,0,0,tools,2,t_329.jpg,329,tbd,460.747715299852,468.496227727718,7.70354970033286,tool,0.710685922535959,0,1,1
56,3,tool,0,0,tools,2,t_281.jpg,281,tbd,471.062478571253,475.744737589699,4.64114988579322,tool,0.808405106892678,0,1,1
57,3,tool,0,0,tools,2,t_261.jpg,261,tbd,478.311156178001,485.193131537801,6.83106703531696,tool,0.629455439303456,0,1,1
58,3,animal,0,0,tools,2,a_132.jpg,132,tbd,487.759409323135,492.808390153404,4.99272580661137,animal,0.560507850081194,0,2,1
59,3,tool,0,0,tools,2,t_339.jpg,339,tbd,495.374714124676,499.54052228881,4.1239091329721,tool,0.606664281857775,0,1,1
60,3,tool,0,0,tools,2,t_202.jpg,202,tbd,502.090145873404,507.988890257322,5.8549509535066,tool,0.566548906815115,0,1,1
