trial,phase,object,toShock,seenBefore,shockedCategory,responseSide,filename,num,name,onsetFixationCross,onsetStimulus,interTrialTime,response,reactionTime,wasShocked,buttonPressed,isResponseCorrect
1,1,animal,0,0,tools,1,a_129.jpg,129,tbd,0.0388903854718592,6.83730319283291,6.61766222026801,animal,1.05138420276762,0,1,1
2,1,tool,0,0,tools,1,t_304.jpg,304,tbd,9.43705135116863,15.6025926632085,6.10464423289619,tool,0.982455536951079,0,2,1
3,1,animal,0,0,tools,1,a_093.jpg,93,tbd,18.1522178514804,24.4676213113204,6.26083615866024,animal,1.02070807910218,0,1,1
4,1,animal,0,0,tools,1,a_035.jpg,35,tbd,27.0172429714996,31.3330511997814,4.255571646035,animal,0.755532469896707,0,1,1
5,1,animal,0,0,tools,1,a_051.jpg,51,tbd,33.8826417485986,40.231424813241,6.28714412775547,animal,0.73251904261781,0,1,1
6,1,tool,0,0,tools,1,t_303.jpg,303,tbd,42.7977064474021,47.2800521927791,4.43659515458977,tool,1.31828825661012,0,2,1
7,1,animal,0,0,tools,1,a_162.jpg,162,tbd,49.8463867483292,55.7951665414674,5.88705271211213,animal,0.832417946728128,0,1,1
8,1,animal,0,0,tools,1,a_019.jpg,19,tbd,58.3448610086485,63.5937108504617,5.18616681250832,animal,0.6922660719639,0,1,1
9,1,animal,0,0,tools,1,a_000.jpg,0,tbd,66.143435146062,71.6921250690598,5.52347601917652,animal,0.811107946702464,0,1,1
10,1,tool,0,0,tools,1,t_281.jpg,281,tbd,74.2419571318521,80.7573008065594,6.45466145461576,tool,1.09443976188675,0,2,1
11,1,animal,0,0,tools,1,a_101.jpg,101,tbd,83.3236154764967,87.522719854154,4.14954981673959,animal,0.714145698576203,0,1,1
12,1,tool,0,0,tools,1,t_358.jpg,358,tbd,90.0723742293737,95.6712640990011,5.55496028119152,tool,1.06704251918745,0,2,1
13,1,animal,0,0,tools,1,a_110.jpg,110,tbd,98.237555355233,105.069494343607,6.76257795126229,animal,0.720093421224533,0,1,1
14,1,tool,0,0,tools,1,t_222.jpg,222,tbd,107.635800032945,114.667828057547,6.97584667907877,tool,1.1992933909471,0,2,1
15,1,animal,0,0,tools,1,a_151.jpg,151,tbd,117.234038167649,123.499465554371,6.20332824258294,animal,0.758940286610482,0,1,1
16,1,tool,0,0,tools,1,t_327.jpg,327,tbd,126.049149116539,131.348064195992,5.25081115734185,tool,0.942749741385342,0,2,1
17,1,tool,0,0,tools,1,t_217.jpg,217,tbd,133.897690667206,138.430105499051,4.47319141142261,tool,0.911930569601964,0,2,1
18,1,tool,0,0,tools,1,t_196.jpg,196,tbd,140.979739667922,148.694830153875,7.66644853221549,tool,0.936623048221804,0,2,1
19,1,animal,0,0,tools,1,a_137.jpg,137,tbd,151.261185877981,156.77668350582,5.45270119174628,animal,2.24907638117872,0,1,1
20,1,animal,0,0,tools,1,a_174.jpg,174,tbd,159.326356483709,166.474926387412,7.08638673632818,animal,1.02518811522975,0,1,1
21,1,tool,0,0,tools,1,t_191.jpg,191,tbd,169.024588460288,176.373172668802,7.29495876158985,tool,0.845289711467217,0,2,1
22,1,tool,0,0,tools,1,t_212.jpg,212,tbd,178.922765783505,184.504987981494,5.51903696729159,tool,0.994915477063273,0,2,1
23,1,tool,0,0,tools,1,t_220.jpg,220,tbd,187.054605472109,195.053072676243,7.94510382589963,tool,1.42528536229122,0,2,1
24,1,animal,0,0,tools,1,a_155.jpg,155,tbd,197.602677978902,202.868321220745,5.21716712291748,animal,1.03234084186806,0,1,1
25,1,animal,0,0,tools,1,a_088.jpg,88,tbd,205.434587459593,212.516495015869,7.00862440570113,animal,0.88045934215927,0,1,1
26,1,tool,0,0,tools,1,t_318.jpg,318,tbd,215.082835023926,221.198282232114,6.06675558071808,tool,0.744133844185058,0,2,1
27,1,tool,0,0,tools,1,t_278.jpg,278,tbd,223.747901967879,230.329860841866,6.52055008663498,tool,0.919864608382795,0,2,1
28,1,animal,0,0,tools,1,a_050.jpg,50,tbd,232.89619507668,240.728010581813,7.77144444157019,animal,0.930184920702345,0,1,1
29,1,animal,0,0,tools,1,a_062.jpg,62,tbd,243.29430151731,248.226649379542,4.88090079536746,animal,0.702778504962112,0,1,1
30,1,animal,0,0,tools,1,a_163.jpg,163,tbd,250.79293646621,257.241608171421,6.39056909747437,animal,0.675252326515078,0,1,1
31,1,tool,0,0,tools,1,t_200.jpg,200,tbd,259.791289488438,267.739718717467,7.88966132627572,tool,0.919488706153174,0,2,1
32,1,tool,0,0,tools,1,t_259.jpg,259,tbd,270.306036594761,276.08824936312,5.72553662453772,tool,0.89738648897162,0,2,1
33,1,tool,0,0,tools,1,t_227.jpg,227,tbd,278.637840232673,282.787022420809,4.09844092563163,tool,1.07380875931835,0,2,1
34,1,animal,0,0,tools,1,a_171.jpg,171,tbd,285.336571273987,291.668712967317,6.26726269326276,animal,0.828539610756252,0,1,1
35,1,tool,0,0,tools,1,t_349.jpg,349,tbd,294.234997167364,298.800713665238,4.51547857857498,tool,1.23586046704349,0,2,1
36,1,tool,0,0,tools,1,t_236.jpg,236,tbd,301.367010694712,306.032753428766,4.60020054002718,tool,0.894096382256521,0,2,1
37,1,animal,0,0,tools,1,a_077.jpg,77,tbd,308.599016139522,316.047562757813,7.38644153497939,animal,0.760539154028493,0,1,1
38,1,tool,0,0,tools,1,t_285.jpg,285,tbd,318.597197888891,326.26230235892,7.61408233712954,tool,1.32157708038267,0,2,1
39,1,tool,0,0,tools,1,t_193.jpg,193,tbd,328.811983034466,336.793764605763,7.92393405458155,tool,1.41335752268992,0,2,1
40,1,animal,0,0,tools,1,a_114.jpg,114,tbd,339.343386265943,345.342197298737,5.94197751954826,animal,1.11517821091184,0,1,1
41,1,tool,0,0,tools,1,t_228.jpg,228,tbd,347.891813827145,354.057272389377,6.11360761074438,tool,1.06544236882655,0,2,1
42,1,tool,0,0,tools,1,t_194.jpg,194,tbd,356.606881540864,364.388728670537,7.72443389933813,tool,1.39842471040242,0,2,1
43,1,tool,0,0,tools,1,t_274.jpg,274,tbd,366.955009983962,373.403646408247,6.39383391416136,tool,1.04686182952878,0,2,1
44,1,animal,0,0,tools,1,a_087.jpg,87,tbd,375.953332857035,383.001941954639,6.98486767193178,animal,0.837172532607156,0,1,1
45,1,animal,0,0,tools,1,a_098.jpg,98,tbd,385.551501071359,393.566673793943,7.94757531213978,animal,1.35375103972365,0,1,1
46,1,animal,0,0,tools,1,a_040.jpg,40,tbd,396.116200837093,402.898306479732,6.72696315109801,animal,1.25354102199321,0,1,1
47,1,tool,0,0,tools,1,t_221.jpg,221,tbd,405.464602226264,410.380254192117,4.86633372078655,tool,0.810692273247469,0,2,1
48,1,tool,0,0,tools,1,t_254.jpg,254,tbd,412.929938716492,418.912068286013,5.92544580064098,tool,1.0473785347267,0,2,1
49,1,animal,0,0,tools,1,a_132.jpg,132,tbd,421.478342863989,428.676930536449,7.13607219953137,animal,1.28391340895951,0,1,1
50,1,tool,0,0,tools,1,t_266.jpg,266,tbd,431.243218264588,435.542423289105,4.24102437867102,tool,1.1056985468374,0,2,1
51,1,tool,0,0,tools,1,t_280.jpg,280,tbd,438.108631795529,442.374426103881,4.21481956883143,tool,1.61197662724726,0,2,1
52,1,animal,0,0,tools,1,a_014.jpg,14,tbd,444.924077913215,452.905824203586,7.92429384351967,animal,1.39000539852168,0,1,1
53,1,animal,0,0,tools,1,a_141.jpg,141,tbd,455.455473447035,462.820646746943,7.30918364636114,animal,0.9065778116601,0,1,1
54,1,tool,0,0,tools,1,t_325.jpg,325,tbd,465.370283802436,472.235610093269,6.81240541603811,tool,1.09199222783127,0,2,1
55,1,animal,0,0,tools,1,a_089.jpg,89,tbd,474.785259336717,481.750391197574,6.90779647162188,animal,1.21859750996327,0,1,1
56,1,animal,0,0,tools,1,a_085.jpg,85,tbd,484.316830954431,491.298789571829,6.93109061280094,animal,0.687502505485782,0,1,1
57,1,tool,0,0,tools,1,t_313.jpg,313,tbd,493.848369857105,498.930681861087,5.03689052273356,tool,0.916928593870125,0,2,1
58,1,tool,0,0,tools,1,t_237.jpg,237,tbd,501.480373441647,506.962589289069,5.4227671608663,tool,1.4684403494748,0,2,1
59,1,animal,0,0,tools,1,a_028.jpg,28,tbd,509.528893374728,516.394213250847,6.82228523630892,animal,0.846166602845642,0,1,1
60,1,animal,0,0,tools,1,a_036.jpg,36,tbd,518.943829137784,526.925575428155,7.92261078723145,animal,0.810166266714532,0,1,1
