trial,phase,object,toShock,seenBefore,shockedCategory,responseSide,filename,num,name,onsetFixationCross,onsetStimulus,interTrialTime,response,reactionTime,wasShocked,buttonPressed,isResponseCorrect
1,2,animal,0,0,tools,2,a_082.jpg,82,tbd,0.0284125104517443,6.47687219778027,6.3335620298946,1,1.05241778204891,0,1,0
2,2,tool,1,0,tools,2,t_332.jpg,332,tbd,11.0595770246141,20.8575561390076,9.7555322332414,1,1.18420352737712,1,1,1
3,2,tool,1,0,tools,2,t_339.jpg,339,tbd,25.6069500304857,35.1384190823073,9.47891513787842,1,1.77198045378191,1,1,1
4,2,tool,0,0,tools,2,t_221.jpg,221,tbd,39.8876413806861,47.769379416718,7.82909659626112,1,1.2104781193143,0,1,0
5,2,animal,0,0,tools,2,a_105.jpg,105,tbd,52.3353280972315,58.8007248252875,6.41435303844709,1,1.37251332252072,0,1,0
6,2,tool,1,0,tools,2,t_201.jpg,201,tbd,63.3499494329567,71.2983685473378,7.89808077560484,1,1.94141244213552,1,1,1
7,2,animal,0,0,tools,2,a_144.jpg,144,tbd,76.0475943737988,85.2291215908699,9.1365873318475,1,1.45413967870718,0,1,0
8,2,tool,1,0,tools,2,t_240.jpg,240,tbd,89.7616936495479,98.4766332503805,8.67722147600466,0,1.25314995536974,1,2,0
9,2,animal,0,0,tools,2,a_037.jpg,37,tbd,103.24254979327,110.740954618917,7.44255479753772,0,1.53828476500257,0,2,1
10,2,animal,0,0,tools,2,a_125.jpg,125,tbd,115.290288597141,124.088502168648,8.74598258628044,1,1.74925703716144,0,1,0
11,2,tool,1,0,tools,2,t_228.jpg,228,tbd,128.654460150469,134.819908292309,6.11826390327027,1,1.24323957187016,1,1,1
12,2,animal,0,0,tools,2,a_059.jpg,59,tbd,139.569128345544,148.284101302792,8.65920304547579,1,2.07944738362221,0,1,0
13,2,animal,0,0,tools,2,a_062.jpg,62,tbd,152.833290629638,161.148287449552,8.26469818516169,0,2.12883123610209,0,2,1
14,2,tool,0,0,tools,2,t_234.jpg,234,tbd,165.714206943202,175.395667287075,9.62537925352272,0,1.68901438848252,0,2,1
15,2,animal,0,0,tools,2,a_133.jpg,133,tbd,179.944914987647,189.443003568816,9.44263179132432,0,1.11520417814791,0,2,1
16,2,animal,0,0,tools,2,a_022.jpg,22,tbd,194.008990416766,201.524116107909,7.45737962900432,0,1.54556095387807,0,2,1
17,2,tool,1,0,tools,2,t_290.jpg,290,tbd,206.090062222544,215.204898097754,9.05856055944667,0,2.17531019381659,1,2,0
18,2,tool,0,0,tools,2,t_316.jpg,316,tbd,219.954163053857,227.019360413183,7.01825502638428,0,1.97722344083604,0,2,1
19,2,tool,1,0,tools,2,t_259.jpg,259,tbd,231.568660072788,241.400028638407,9.7875047545032,1,1.75218662850375,1,1,1
20,2,animal,0,0,tools,2,a_111.jpg,111,tbd,246.165942294684,253.147684788929,6.93699205219612,0,1.65302602345628,0,2,1
21,2,animal,0,0,tools,2,a_172.jpg,172,tbd,257.713771385391,266.378655194412,8.61103248565169,1,1.69548168428082,0,1,0
22,2,animal,0,0,tools,2,a_058.jpg,58,tbd,270.944662569387,280.176149037106,9.18041118725057,0,1.46349166298114,0,2,1
23,2,tool,1,0,tools,2,t_345.jpg,345,tbd,284.742095472476,291.290688874128,6.50299283711698,0,1.47029989983503,1,2,0
24,2,tool,0,0,tools,2,t_286.jpg,286,tbd,296.056658979724,303.888421407634,7.77159903462661,0,2.42715530073519,0,2,1
25,2,animal,0,0,tools,2,a_053.jpg,53,tbd,308.454374578434,315.852841979434,7.34677567554287,0,1.41413443148622,0,2,1
26,2,animal,0,0,tools,2,a_120.jpg,120,tbd,320.418803168603,328.217268837634,7.7378061803136,0,1.04416848389656,0,2,1
27,2,tool,0,0,tools,2,t_348.jpg,348,tbd,332.783163313973,342.081312257424,9.24852219336345,0,1.38561277178678,0,2,1
28,2,animal,0,0,tools,2,a_016.jpg,16,tbd,346.647233354748,355.778588674022,9.07309626953286,0,1.21691366237064,0,2,1
29,2,tool,1,0,tools,2,t_325.jpg,325,tbd,360.344681364444,366.410241154055,6.01207013919883,0,2.06761098786001,1,2,0
30,2,tool,0,0,tools,2,t_206.jpg,206,tbd,371.175963652412,381.074066538351,9.84040612871721,0,1.94341414780274,0,2,1
31,2,tool,1,0,tools,2,t_342.jpg,342,tbd,385.623318408475,394.054952670775,8.38651151049358,0,1.91801131295642,1,2,0
32,2,animal,0,0,tools,2,a_154.jpg,154,tbd,398.820877873503,408.218987975974,9.34955117316086,0,1.55348727212186,0,2,1
33,2,tool,1,0,tools,2,t_256.jpg,256,tbd,412.784921902688,422.633051746385,9.79423433371439,1,1.33284580900681,1,1,1
34,2,animal,0,0,tools,2,a_033.jpg,33,tbd,427.38220380385,434.48088330675,7.03912824388215,1,1.77660192100893,0,1,0
35,2,tool,0,0,tools,2,t_225.jpg,225,tbd,439.030055955387,447.478238527879,8.39725099218161,0,1.68767660377807,0,2,1
36,2,tool,1,0,tools,2,t_329.jpg,329,tbd,452.027633124973,461.875680539835,9.7936848172478,0,2.27485728425518,1,2,0
37,2,animal,0,0,tools,2,a_012.jpg,12,tbd,466.641553783531,473.89009788825,7.1989849647396,0,3.20992773845728,0,2,1
38,2,tool,0,0,tools,2,t_327.jpg,327,tbd,478.456018344104,487.720864113981,9.20581550689497,0,1.20369457903735,0,2,1
39,2,tool,0,0,tools,2,t_334.jpg,334,tbd,492.286809266412,501.118377329055,8.77819197895377,0,1.33368869996912,0,2,1
40,2,tool,1,0,tools,2,t_346.jpg,346,tbd,505.684319274138,514.532437250649,8.80088785179318,0,0.944966504064723,1,2,0
41,2,animal,0,0,tools,2,a_116.jpg,116,tbd,519.29844007119,527.380016392754,8.05440519685825,0,3.07603027543701,0,2,1
42,2,tool,1,0,tools,2,t_213.jpg,213,tbd,531.929428309526,540.277732151832,8.29202912224616,1,1.7858150271295,1,1,1
43,2,tool,1,0,tools,2,t_335.jpg,335,tbd,545.043645808109,553.042079660252,7.94793648455431,1,1.13384720708973,1,1,1
44,2,animal,0,0,tools,2,a_011.jpg,11,tbd,557.807939433088,564.806529483062,6.94644903624522,0,2.26989904552556,0,2,1
45,2,tool,1,0,tools,2,t_343.jpg,343,tbd,569.372401187232,576.604173750361,7.17207623988404,1,1.43266327885249,1,1,1
46,2,animal,0,0,tools,2,a_085.jpg,85,tbd,581.370227246995,590.535072086742,9.11210641793044,0,0.924140554313453,0,2,1
47,2,animal,0,0,tools,2,a_112.jpg,112,tbd,595.084361803568,601.216424022264,6.0815875575835,0,1.01331764833412,0,2,1
48,2,animal,0,0,tools,2,a_104.jpg,104,tbd,605.782354100161,611.964432981028,6.12912418329192,0,0.932660231871978,0,2,1
49,2,tool,1,0,tools,2,t_308.jpg,308,tbd,616.513696397603,626.228553890336,9.66640174620465,1,1.30933370559978,1,1,1
50,2,animal,0,0,tools,2,a_023.jpg,23,tbd,630.977674836529,640.725825560059,9.6969832466447,0,0.936410904212153,0,2,1
51,2,animal,0,0,tools,2,a_057.jpg,57,tbd,645.29165492724,652.623498661414,7.27638811929185,0,0.957188743749157,0,2,1
52,2,animal,0,0,tools,2,a_019.jpg,19,tbd,657.17275405962,666.870862782932,9.65010949757317,0,0.664360148577543,0,2,1
53,2,tool,1,0,tools,2,t_337.jpg,337,tbd,671.436806331689,678.135421815929,6.64909588781263,0,1.2712602438678,1,2,0
54,2,animal,0,0,tools,2,a_081.jpg,81,tbd,682.884665603538,690.699766181149,7.76294498157263,0,0.983369360400502,0,2,1
55,2,animal,0,0,tools,2,a_070.jpg,70,tbd,695.26570459815,704.897166240998,9.58252822639546,0,0.811539879679458,0,2,1
56,2,animal,0,0,tools,2,a_166.jpg,166,tbd,709.463068094236,717.87800650835,8.36383023501988,0,0.768148956281038,0,2,1
57,2,tool,1,0,tools,2,t_349.jpg,349,tbd,722.444019656551,732.458646444768,9.9629134650248,1,0.983053757391644,1,1,1
58,2,tool,0,0,tools,2,t_185.jpg,185,tbd,737.207871950494,745.256122326315,8.00726342222026,0,1.56209515174169,0,2,1
59,2,tool,1,0,tools,2,t_298.jpg,298,tbd,749.805535205291,757.470674960654,7.60485200883146,1,1.2259801927039,1,1,1
60,2,animal,0,0,tools,2,a_065.jpg,65,tbd,762.219913295771,770.535027183875,8.26094492145063,0,1.25012125698549,0,2,1
