trial,phase,object,toShock,seenBefore,shockedCategory,responseSide,filename,num,name,onsetFixationCross,onsetStimulus,interTrialTime,response,reactionTime,wasShocked,buttonPressed,isResponseCorrect
1,2,tool,1,0,tools,2,t_284.jpg,284,tbd,0.0288441291822892,9.84334103746914,9.68471545661531,1,2.44865206932081,1,1,1
2,2,animal,0,0,tools,2,a_143.jpg,143,tbd,14.6259156377309,22.1911620205756,7.51629495046896,0,1.65922948305888,0,2,1
3,2,animal,0,0,tools,2,a_075.jpg,75,tbd,26.7571233189192,35.888667129062,9.08840072435171,0,1.72913692892507,0,2,1
4,2,animal,0,0,tools,2,a_146.jpg,146,tbd,40.4545309243495,46.8198909110843,6.31410322567493,0,2.0064182999713,0,2,1
5,2,tool,0,0,tools,2,t_315.jpg,315,tbd,51.3691073425298,60.4672130570107,9.05763849412755,1,1.07048871257302,0,1,0
6,2,tool,0,0,tools,2,t_186.jpg,186,tbd,65.0332032213901,73.314851061521,8.2282186599144,1,1.57627939981285,0,1,0
7,2,tool,1,0,tools,2,t_258.jpg,258,tbd,77.8641220177024,84.7127010549939,6.8051482658429,0,3.41696165178655,1,2,0
8,2,animal,0,0,tools,2,a_048.jpg,48,tbd,89.4785923692361,99.1433146410827,9.60697166702488,0,1.60579171454447,0,2,1
9,2,animal,0,0,tools,2,a_153.jpg,153,tbd,103.692552882423,111.957547906239,8.20275726231457,0,1.70688666744627,0,2,1
10,2,animal,0,0,tools,2,a_125.jpg,125,tbd,116.506797373259,124.138591836818,7.57693711744185,0,1.80937520843236,0,2,1
11,2,tool,1,0,tools,2,t_336.jpg,336,tbd,128.687828474489,137.502688132632,8.76745881601777,1,2.05968062713237,1,1,1
12,2,animal,0,0,tools,2,a_028.jpg,28,tbd,142.251921178085,150.350269046537,8.04052487871014,0,1.6595316142384,0,2,1
13,2,animal,0,0,tools,2,a_034.jpg,34,tbd,154.899535512446,161.564803352378,6.61678968001696,0,1.96146169364238,0,2,1
14,2,animal,0,0,tools,2,a_081.jpg,81,tbd,166.130734822484,172.762707934733,6.5899064135533,0,1.64792618472893,0,2,1
15,2,tool,0,0,tools,2,t_193.jpg,193,tbd,177.328632027962,186.326872482686,8.95616953183272,1,1.86523612032306,0,1,0
16,2,animal,0,0,tools,2,a_157.jpg,157,tbd,190.89272825963,200.790781437924,9.85486604069537,0,1.8147651388681,0,2,1
17,2,animal,0,0,tools,2,a_037.jpg,37,tbd,205.339986643689,215.054712267204,9.66518690531368,0,2.09133576395561,0,2,1
18,2,tool,0,0,tools,2,t_318.jpg,318,tbd,219.603962696426,227.369067250813,7.7223487857831,1,1.32046281332441,0,1,0
19,2,tool,1,0,tools,2,t_230.jpg,230,tbd,231.934953176728,238.650223406126,6.66459813550032,1,1.29561428784928,1,1,1
20,2,tool,1,0,tools,2,t_305.jpg,305,tbd,243.399444905165,253.130671317203,9.69129937339493,1,1.7666816993451,1,1,1
21,2,animal,0,0,tools,2,a_134.jpg,134,tbd,257.896706640893,267.711226642009,9.75237687371288,0,0.838671348626121,0,2,1
22,2,tool,1,0,tools,2,t_327.jpg,327,tbd,272.27731302651,282.225312786601,9.89998839844774,1,2.51511483486047,1,1,1
23,2,animal,0,0,tools,2,a_113.jpg,113,tbd,286.97446564862,294.473005508286,7.44072859331777,0,1.97277333104921,0,2,1
24,2,tool,1,0,tools,2,t_232.jpg,232,tbd,299.022147208771,305.770687148621,6.70732233909952,1,2.07656629613939,1,1,1
25,2,tool,1,0,tools,2,t_331.jpg,331,tbd,310.536737546796,318.701730036815,8.11801987764984,1,1.52696017320432,1,1,1
26,2,tool,1,0,tools,2,t_206.jpg,206,tbd,323.450952177322,330.682810274453,7.17668923115491,1,1.85328846791799,1,1,1
27,2,animal,0,0,tools,2,a_080.jpg,80,tbd,335.448691966683,342.330583372013,6.82547323117653,0,1.00888345946714,0,2,1
28,2,tool,1,0,tools,2,t_263.jpg,263,tbd,346.896525105598,354.994860786168,8.04931415262164,0,1.50807312568304,1,2,0
29,2,animal,0,0,tools,2,a_039.jpg,39,tbd,359.744064965585,368.359031812943,8.57526963315026,0,0.772342329054482,0,2,1
30,2,tool,0,0,tools,2,t_246.jpg,246,tbd,372.908206869736,382.456330882077,9.50436999076453,1,2.01357066228775,0,1,0
31,2,tool,1,0,tools,2,t_275.jpg,275,tbd,387.022232523945,396.103756304266,9.03509430503503,1,1.3645139883165,1,1,1
32,2,animal,0,0,tools,2,a_137.jpg,137,tbd,400.852981010643,407.251671967972,6.34968464890671,0,1.39894250975613,0,2,1
33,2,animal,0,0,tools,2,a_165.jpg,165,tbd,411.817568478101,420.982374301086,9.11841650934026,0,1.34283976462757,0,2,1
34,2,tool,1,0,tools,2,t_339.jpg,339,tbd,425.548265038007,432.430234060901,6.8318500282607,1,1.5813742552109,1,1,1
35,2,animal,0,0,tools,2,a_083.jpg,83,tbd,437.196102923781,446.777387917837,9.54474229586582,0,1.91271978775876,0,2,1
36,2,tool,1,0,tools,2,t_262.jpg,262,tbd,451.32676984789,461.207937998645,9.81926887456124,1,1.45167306038184,1,1,1
37,2,tool,1,0,tools,2,t_270.jpg,270,tbd,465.973984227282,475.455421601935,9.43596272423306,1,1.46761064046495,1,1,1
38,2,animal,0,0,tools,2,a_160.jpg,160,tbd,480.204632837495,489.46931193858,9.2273637805807,0,1.05518618528731,0,2,1
39,2,tool,0,0,tools,2,t_242.jpg,242,tbd,494.018637419496,500.71730294264,6.63515719084712,1,1.29465914278262,0,1,0
40,2,animal,0,0,tools,2,a_128.jpg,128,tbd,505.283207150378,511.465295390002,6.13986977254766,0,1.151028161059,0,2,1
41,2,tool,1,0,tools,2,t_241.jpg,241,tbd,516.031174580509,525.795871482317,9.70403198796417,1,2.27699344932989,1,1,1
42,2,animal,0,0,tools,2,a_033.jpg,33,tbd,530.561771135636,539.176515714515,8.55345065623304,0,1.19277293975392,0,2,1
43,2,tool,1,0,tools,2,t_350.jpg,350,tbd,543.7259492827,549.974627939891,6.19922235738912,1,1.67207968019738,1,1,1
44,2,animal,0,0,tools,2,a_136.jpg,136,tbd,554.723844307189,562.072334020136,7.29091160321346,0,1.19374283857178,0,2,1
45,2,animal,0,0,tools,2,a_054.jpg,54,tbd,566.638254906028,573.936764039402,7.245858790929,0,1.33473193651207,0,2,1
46,2,tool,1,0,tools,2,t_304.jpg,304,tbd,578.502675303283,585.85109477554,7.31022715831186,1,0.699788188398088,1,1,1
47,2,tool,0,0,tools,2,t_182.jpg,182,tbd,590.61705793414,599.681867638003,9.02281640912084,1,1.39051715524056,0,1,0
48,2,animal,0,0,tools,2,a_019.jpg,19,tbd,604.231149178397,610.546522812352,6.25521254359573,0,1.03716062858166,0,2,1
49,2,tool,1,0,tools,2,t_224.jpg,224,tbd,615.112434076233,623.493881425705,8.34266494503914,1,1.25731932121926,1,1,1
50,2,animal,0,0,tools,2,a_066.jpg,66,tbd,628.243263612346,637.174788563345,8.88092713456241,0,1.1358766993626,0,2,1
51,2,animal,0,0,tools,2,a_156.jpg,156,tbd,641.740723240788,648.789106887088,7.00098065260438,0,2.1880007424943,0,2,1
52,2,tool,0,0,tools,2,t_311.jpg,311,tbd,653.33850068429,659.553746698291,6.16550005856227,1,2.75675338654219,0,1,0
53,2,tool,1,0,tools,2,t_217.jpg,217,tbd,664.103149155304,671.434968732314,7.27872252267124,1,1.59307654630902,1,1,1
54,2,tool,1,0,tools,2,t_197.jpg,197,tbd,676.184196646028,686.082201714263,9.83791369040264,1,1.14918233840672,1,1,1
55,2,animal,0,0,tools,2,a_090.jpg,90,tbd,690.848099443178,698.563193589756,7.65505356056435,0,2.12264258394134,0,2,1
56,2,tool,0,0,tools,2,t_316.jpg,316,tbd,703.112438887239,709.861029182284,6.69611199244476,1,1.62710832011726,0,1,0
57,2,tool,0,0,tools,2,t_190.jpg,190,tbd,714.426962256059,723.791727281712,9.30515071210569,1,1.26994019373797,0,1,0
58,2,animal,0,0,tools,2,a_106.jpg,106,tbd,728.357673826304,737.105878599399,8.69030790523408,0,2.0952807889098,0,2,1
59,2,animal,0,0,tools,2,a_177.jpg,177,tbd,741.65514698971,751.186534794964,9.47604188101787,0,1.1999464704968,0,2,1
60,2,animal,0,0,tools,2,a_011.jpg,11,tbd,755.752502187248,764.80063790637,9.02767537499284,0,2.52248625831908,0,2,1
