trial,phase,object,toShock,seenBefore,shockedCategory,responseSide,filename,num,name,onsetFixationCross,onsetStimulus,interTrialTime,response,reactionTime,wasShocked,buttonPressed,isResponseCorrect
1,3,animal,0,0,animals,2,a_006.jpg,6,tbd,0.0154185335618422,7.73048445557015,7.63332810693897,animal,1.06692407998844,0,2,1
2,3,tool,0,0,animals,2,t_354.jpg,354,tbd,10.2967908634132,15.7123203418905,5.35863826485185,tool,0.684288412023761,0,1,1
3,3,animal,0,0,animals,2,a_017.jpg,17,tbd,18.2786312400058,24.027414937495,5.69017316792666,animal,0.7695314207499,0,2,1
4,3,animal,0,0,animals,2,a_134.jpg,134,tbd,26.5936908756335,33.5589736938309,6.90599370566037,animal,0.540220911684173,0,2,1
5,3,tool,0,0,animals,2,t_192.jpg,192,tbd,36.1085756472276,43.2902408390537,7.12227870148143,tool,0.562364368828639,0,1,1
6,3,tool,0,0,animals,2,t_322.jpg,322,tbd,45.8400509486451,52.688676171595,6.78136207487865,tool,0.551196420135966,0,1,1
7,3,animal,0,0,animals,2,a_155.jpg,155,tbd,55.2383137264364,59.4873647554946,4.18768910987512,animal,0.764813748225151,0,2,1
8,3,tool,0,0,animals,2,t_276.jpg,276,tbd,62.053669880403,67.3025829939543,5.18993051848889,tool,0.629869198276992,0,1,1
9,3,animal,0,0,animals,2,a_159.jpg,159,tbd,69.8521907205586,74.917834332136,5.00527104461882,animal,0.653874514759082,0,2,1
10,3,tool,0,0,animals,2,t_235.jpg,235,tbd,77.4673811193297,84.7159093523983,7.18874649824191,tool,0.638137713994638,0,1,1
11,3,animal,0,0,animals,2,a_173.jpg,173,tbd,87.2655645475952,91.4979518553914,4.16974160666168,animal,0.993343912110049,0,2,1
12,3,animal,0,0,animals,2,a_165.jpg,165,tbd,94.0476205214054,100.246386915309,6.13943842713207,animal,0.835197483688717,0,2,1
13,3,animal,0,0,animals,2,a_157.jpg,157,tbd,102.812598385966,108.578042918114,5.71427694212607,animal,0.706832465604293,0,2,1
14,3,tool,0,0,animals,2,t_196.jpg,196,tbd,111.127724413477,117.193013614276,6.01960818602874,tool,0.810084352881859,0,1,1
15,3,tool,0,0,animals,2,t_256.jpg,256,tbd,119.742758614919,126.158122274055,6.34864429307678,tool,0.971311749572578,0,1,1
16,3,animal,0,0,animals,2,a_154.jpg,154,tbd,128.707715567641,136.122888710937,7.34966513767014,animal,0.689861160689816,0,2,1
17,3,animal,0,0,animals,2,a_074.jpg,74,tbd,138.672520171838,143.35485938561,4.62689342370766,animal,0.655217106178497,0,2,1
18,3,tool,0,0,animals,2,t_324.jpg,324,tbd,145.90446679148,150.470145202668,4.50532837821397,tool,0.526176943579685,0,1,1
19,3,animal,0,0,animals,2,a_167.jpg,167,tbd,153.019771211095,158.485272609334,5.40484893803029,animal,0.669252414472794,0,2,1
20,3,animal,0,0,animals,2,a_144.jpg,144,tbd,161.051576130573,165.583983548375,4.47422984829711,animal,1.00187125995308,0,2,1
21,3,tool,0,0,animals,2,t_271.jpg,271,tbd,168.150261090182,176.165314728088,7.95813726176621,tool,0.65288922072159,0,1,1
22,3,tool,0,0,animals,2,t_315.jpg,315,tbd,178.731556989184,186.313353553548,7.51816407113258,tool,1.34315536878376,0,1,1
23,3,tool,0,0,animals,2,t_357.jpg,357,tbd,188.86299367426,194.311796711993,5.39437179202006,tool,0.712049520556775,0,1,1
24,3,animal,0,0,animals,2,a_014.jpg,14,tbd,196.861504186789,202.693533363296,5.7815553974472,animal,1.25749444399889,0,2,1
25,3,tool,0,0,animals,2,t_212.jpg,212,tbd,205.243220631866,210.708756990082,5.41345985210311,tool,1.04466066842724,0,1,1
26,3,tool,0,0,animals,2,t_311.jpg,311,tbd,213.258394544923,217.674128651524,4.35541288111017,tool,0.583503929378367,0,1,1
27,3,animal,0,0,animals,2,a_026.jpg,26,tbd,220.240394326183,227.888807929014,7.59771260568149,animal,0.954248714809182,0,2,1
28,3,animal,0,0,animals,2,a_100.jpg,100,tbd,230.438469218152,236.687150761946,6.19106775968723,animal,0.535113547670335,0,2,1
29,3,animal,0,0,animals,2,a_097.jpg,97,tbd,239.25345813199,246.118741623729,6.80699705117665,animal,0.687771259664714,0,2,1
30,3,tool,0,0,animals,2,t_343.jpg,343,tbd,248.668355444273,253.600640534228,4.87351090349668,tool,0.620168285693126,0,1,1
31,3,tool,0,0,animals,2,t_201.jpg,201,tbd,256.166871569643,263.632048706075,7.4102622835921,tool,0.614184997845314,0,1,1
32,3,tool,0,0,animals,2,t_300.jpg,300,tbd,266.198371792072,270.264115472575,4.0061813926262,tool,0.704339723006797,0,1,1
33,3,animal,0,0,animals,2,a_027.jpg,27,tbd,272.813783176388,279.978890809818,7.10596299893806,animal,0.752829211439803,0,2,1
34,3,animal,0,0,animals,2,a_090.jpg,90,tbd,282.545265854681,289.227242639332,6.62345630731781,animal,0.477857764760756,0,2,1
35,3,tool,0,0,animals,2,t_312.jpg,312,tbd,291.776897513795,296.30924687879,4.48736852481689,tool,0.55407468468411,0,1,1
36,3,animal,0,0,animals,2,a_051.jpg,51,tbd,298.85886198227,303.457886759272,4.53633220282512,animal,0.540731199058882,0,2,1
37,3,animal,0,0,animals,2,a_138.jpg,138,tbd,306.007497693214,312.039685889506,5.96361249418317,animal,0.583213986080864,0,2,1
38,3,tool,0,0,animals,2,t_337.jpg,337,tbd,314.605881002743,318.8549044487,4.17883425454785,tool,0.529223272605577,0,1,1
39,3,tool,0,0,animals,2,t_309.jpg,309,tbd,321.4212028382,327.819974941164,6.32639228908457,tool,0.522486901945285,0,1,1
40,3,tool,0,0,animals,2,t_297.jpg,297,tbd,330.369539368714,337.451477216289,7.02427337345021,tool,0.571296803380847,0,1,1
41,3,animal,0,0,animals,2,a_111.jpg,111,tbd,340.001015343672,347.416195863845,7.35114984988254,animal,0.499836364764178,0,2,1
42,3,animal,0,0,animals,2,a_177.jpg,177,tbd,349.98250419609,356.847787367095,6.80543691214469,animal,0.502583128480637,0,2,1
43,3,animal,0,0,animals,2,a_060.jpg,60,tbd,359.39740118764,366.962563217513,7.49823495025561,animal,1.04119257453794,0,2,1
44,3,tool,0,0,animals,2,t_188.jpg,188,tbd,369.512142398814,374.860953807698,5.2891855241297,tool,0.882127564696475,0,1,1
45,3,animal,0,0,animals,2,a_162.jpg,162,tbd,377.427302873128,383.00939547473,5.53014066058442,animal,0.586958231716835,0,2,1
46,3,animal,0,0,animals,2,a_139.jpg,139,tbd,385.57577116106,392.524380635984,6.88953717916346,animal,0.624226208923119,0,2,1
47,3,tool,0,0,animals,2,t_291.jpg,291,tbd,395.073963666091,399.17310374687,4.04051335701974,tool,0.560774491698794,0,1,1
48,3,animal,0,0,animals,2,a_009.jpg,9,tbd,401.722668495154,406.854922089055,5.07035322713998,animal,0.502256621537526,0,2,1
49,3,tool,0,0,animals,2,t_308.jpg,308,tbd,409.421181990507,414.786869446386,5.2991556529566,tool,0.600579793491306,0,1,1
50,3,tool,0,0,animals,2,t_326.jpg,326,tbd,417.353093425659,421.468884077618,4.05942112595623,tool,1.19281688243473,0,1,1
51,3,animal,0,0,animals,2,a_115.jpg,115,tbd,424.018510727512,430.917072268779,6.8199241284999,animal,0.597868310485865,0,2,1
52,3,animal,0,0,animals,2,a_126.jpg,126,tbd,433.483344037378,439.398821396624,5.85101318552088,animal,0.680498301463558,0,2,1
53,3,tool,0,0,animals,2,t_224.jpg,224,tbd,441.948417897547,447.24735104092,5.23279972744884,tool,0.732146696464042,0,1,1
54,3,tool,0,0,animals,2,t_305.jpg,305,tbd,449.796954277252,455.82904593269,5.97689090283603,tool,0.606761294788157,0,1,1
55,3,tool,0,0,animals,2,t_217.jpg,217,tbd,458.37861292611,465.69386083244,7.26634087107354,tool,0.67428055725486,0,1,1
56,3,animal,0,0,animals,2,a_176.jpg,176,tbd,468.243456691896,472.309221220092,4.00606196148396,animal,0.591151504583195,0,2,1
57,3,animal,0,0,animals,2,a_107.jpg,107,tbd,474.858870642081,481.107560845686,6.18963704582039,animal,0.521219362220108,0,2,1
58,3,tool,0,0,animals,2,t_186.jpg,186,tbd,483.657215720149,490.222548059636,6.5080314643057,tool,0.939460002969099,0,1,1
59,3,tool,0,0,animals,2,t_185.jpg,185,tbd,492.772073036936,499.120856541985,6.29037979068207,tool,0.649519592089746,0,1,1
60,3,tool,0,0,animals,2,t_242.jpg,242,tbd,501.687119971507,509.185681641067,7.44013783208694,tool,0.895053775731412,0,1,1
