trial,phase,object,toShock,seenBefore,shockedCategory,responseSide,filename,num,name,onsetFixationCross,onsetStimulus,interTrialTime,response,reactionTime,wasShocked,buttonPressed,isResponseCorrect
1,1,tool,0,0,animals,1,t_283.jpg,283,tbd,0.0325506378444516,6.73092205859928,6.50657132970254,tool,0.768659546925846,0,2,1
2,1,animal,0,0,animals,1,a_143.jpg,143,tbd,9.33061075643184,15.762696304551,6.37531748153148,animal,0.643055889814946,0,1,1
3,1,tool,0,0,animals,1,t_263.jpg,263,tbd,18.3123046751347,25.2941756377243,6.91732162031645,tool,0.688837129641684,0,2,1
4,1,animal,0,0,animals,1,a_062.jpg,62,tbd,27.8437631607487,34.7923075360612,6.89503527844577,animal,0.477051908251951,0,1,1
5,1,tool,0,0,animals,1,t_287.jpg,287,tbd,37.3419082090846,43.473957290012,6.0814517027909,tool,0.744582540532747,0,2,1
6,1,animal,0,0,animals,1,a_149.jpg,149,tbd,46.0235371154762,53.222040196585,7.14993221578109,animal,0.545836986274708,0,1,1
7,1,tool,0,0,animals,1,t_255.jpg,255,tbd,55.7882980693449,63.6199569160389,7.77068348461386,tool,0.550199578569163,0,2,1
8,1,tool,0,0,animals,1,t_299.jpg,299,tbd,66.1862465412349,74.0512794434943,7.80419512394892,tool,0.769144493224076,0,2,1
9,1,animal,0,0,animals,1,a_080.jpg,80,tbd,76.617542447961,82.1830081134746,5.50968885815784,animal,0.492677314177854,0,1,1
10,1,tool,0,0,animals,1,t_273.jpg,273,tbd,84.7326331621053,91.5812057938789,6.79305794944724,tool,0.717780277065003,0,2,1
11,1,tool,0,0,animals,1,t_229.jpg,229,tbd,94.1474607800536,100.762743131376,6.56192932937538,tool,0.680403490148592,0,2,1
12,1,tool,0,0,animals,1,t_246.jpg,246,tbd,103.312321353182,109.894279362349,6.52924006079342,tool,0.774130267170676,0,2,1
13,1,animal,0,0,animals,1,a_141.jpg,141,tbd,112.443879393909,118.542548004638,6.05009906878313,animal,0.715101526084027,0,1,1
14,1,animal,0,0,animals,1,a_090.jpg,90,tbd,121.108848534711,125.991147385433,4.82829646577057,animal,0.579780982033299,0,1,1
15,1,animal,0,0,animals,1,a_157.jpg,157,tbd,128.557390504536,135.039382222602,6.42739804720035,animal,0.738816747143574,0,1,1
16,1,tool,0,0,animals,1,t_345.jpg,345,tbd,137.588971349285,144.204223872561,6.55217238380735,tool,0.592145188249788,0,2,1
17,1,animal,0,0,animals,1,a_132.jpg,132,tbd,146.753839619974,153.285755468962,6.46585457583933,animal,0.643940147053399,0,1,1
18,1,tool,0,0,animals,1,t_346.jpg,346,tbd,155.852039320988,160.234430702799,4.31065982824098,tool,0.720394560978548,0,2,1
19,1,animal,0,0,animals,1,a_151.jpg,151,tbd,162.800693065803,170.432445309561,7.57732440939465,animal,0.637660862246548,0,1,1
20,1,animal,0,0,animals,1,a_170.jpg,170,tbd,172.982032511854,178.414181885577,5.36177003191578,animal,0.630258695832254,0,1,1
21,1,tool,0,0,animals,1,t_326.jpg,326,tbd,180.980455794921,185.896051725606,4.86044823748193,tool,0.67951378047178,0,2,1
22,1,animal,0,0,animals,1,a_063.jpg,63,tbd,188.462290675197,195.210935503671,6.6911301144446,animal,0.492832227578674,0,1,1
23,1,tool,0,0,animals,1,t_192.jpg,192,tbd,197.760544194986,205.242304024049,7.41835388538188,tool,0.727786143247613,0,2,1
24,1,tool,0,0,animals,1,t_214.jpg,214,tbd,207.791896678781,211.924327751137,4.06501981876235,tool,0.605946593118688,0,2,1
25,1,tool,0,0,animals,1,t_302.jpg,302,tbd,214.473918481479,219.289556460087,4.76393459567807,tool,0.56699148561097,0,2,1
26,1,animal,0,0,animals,1,a_097.jpg,97,tbd,221.839141417258,227.937858779201,6.04858088891031,animal,0.472948787885343,0,1,1
27,1,tool,0,0,animals,1,t_209.jpg,209,tbd,230.487459772956,234.603213439481,4.05533591568657,tool,0.594685062413873,0,2,1
28,1,animal,0,0,animals,1,a_052.jpg,52,tbd,237.169462011022,242.401701895225,5.18256536667371,animal,0.600509228968576,0,1,1
29,1,tool,0,0,animals,1,t_336.jpg,336,tbd,244.967953674083,250.550108933233,5.52266487998768,tool,0.514241708599684,0,2,1
30,1,animal,0,0,animals,1,a_126.jpg,126,tbd,253.116374182821,258.481876155161,5.31429001103441,animal,0.540782575749063,0,1,1
31,1,tool,0,0,animals,1,t_318.jpg,318,tbd,261.031459508673,265.247224368733,4.15931535495556,tool,0.578678627253339,0,2,1
32,1,tool,0,0,animals,1,t_206.jpg,206,tbd,267.813491542712,275.245264056713,7.37739086337181,tool,0.747830269511951,0,2,1
33,1,tool,0,0,animals,1,t_332.jpg,332,tbd,277.794860560224,282.843854569277,4.98751034469528,tool,0.817429685267143,0,2,1
34,1,animal,0,0,animals,1,a_038.jpg,38,tbd,285.393325987434,290.725574499319,5.28795145772483,animal,0.742971826042094,0,1,1
35,1,tool,0,0,animals,1,t_274.jpg,274,tbd,293.291813769642,301.140274786791,7.78366048143519,tool,0.627587321679812,0,2,1
36,1,animal,0,0,animals,1,a_046.jpg,46,tbd,303.70645792907,308.222145075844,4.467190850237,animal,0.74384261254977,0,1,1
37,1,animal,0,0,animals,1,a_021.jpg,21,tbd,310.78839268519,316.670470231054,5.84146383449351,animal,0.711854117836538,0,1,1
38,1,tool,0,0,animals,1,t_220.jpg,220,tbd,319.220067376029,324.602331106632,5.3338042304613,tool,0.900195457167229,0,2,1
39,1,animal,0,0,animals,1,a_070.jpg,70,tbd,327.168453309892,332.067490184734,4.82871500659481,animal,0.678244003755481,0,1,1
40,1,animal,0,0,animals,1,a_164.jpg,164,tbd,334.617071293125,341.932174130927,7.25750103993551,animal,0.647827735731425,0,1,1
41,1,tool,0,0,animals,1,t_309.jpg,309,tbd,344.498470491488,350.93045148108,6.37152915366704,tool,0.634680944219099,0,2,1
42,1,tool,0,0,animals,1,t_310.jpg,310,tbd,353.496706787987,360.528574687589,6.97797719810036,tool,0.831954660803149,0,2,1
43,1,animal,0,0,animals,1,a_161.jpg,161,tbd,363.094831918885,370.626568478865,7.47619873001083,animal,0.620171363803365,0,1,1
44,1,animal,0,0,animals,1,a_075.jpg,75,tbd,373.192842388209,377.491896775,4.23640753154904,animal,0.793039965486969,0,1,1
45,1,animal,0,0,animals,1,a_087.jpg,87,tbd,380.041522785826,386.306875650008,6.20705180298246,animal,1.03230804296686,0,1,1
46,1,tool,0,0,animals,1,t_180.jpg,180,tbd,388.856455154741,393.572141916637,4.66701816831907,tool,0.949358812546507,0,2,1
47,1,tool,0,0,animals,1,t_257.jpg,257,tbd,396.138328266233,400.970667705549,4.77531491677059,tool,0.917005966646229,0,2,1
48,1,tool,0,0,animals,1,t_230.jpg,230,tbd,403.536908900261,410.235526322214,6.63962267203099,tool,0.807416442255999,0,2,1
49,1,animal,0,0,animals,1,a_133.jpg,133,tbd,412.785105506215,420.833438166546,7.98718712057454,animal,0.587713959375833,0,1,1
50,1,tool,0,0,animals,1,t_297.jpg,297,tbd,423.383038518838,430.11489721344,6.68019601407446,tool,0.534430805582815,0,2,1
51,1,animal,0,0,animals,1,a_089.jpg,89,tbd,432.681259965459,438.663280389011,5.92042465541052,animal,0.781377520183923,0,1,1
52,1,animal,0,0,animals,1,a_113.jpg,113,tbd,441.212864063256,448.844671472863,7.58296540493092,animal,1.57837746020709,0,1,1
53,1,animal,0,0,animals,1,a_064.jpg,64,tbd,451.394214734916,458.676049679338,7.22289536534831,animal,0.572174830271479,0,1,1
54,1,tool,0,0,animals,1,t_337.jpg,337,tbd,461.225632070655,466.907764846514,5.62589673520168,tool,0.724672800841745,0,2,1
55,1,animal,0,0,animals,1,a_101.jpg,101,tbd,469.457368406123,477.055776101631,7.55458741272953,animal,0.972111197106187,0,1,1
56,1,animal,0,0,animals,1,a_144.jpg,144,tbd,479.605368114899,486.337305388763,6.68444370291279,animal,1.27378147146987,0,1,1
57,1,animal,0,0,animals,1,a_148.jpg,148,tbd,488.886888100812,496.93517425505,7.98774191093477,animal,0.916207344766235,0,1,1
58,1,tool,0,0,animals,1,t_334.jpg,334,tbd,499.484802190266,503.583901222907,4.04886371262974,tool,0.721576777946666,0,2,1
59,1,tool,0,0,animals,1,t_266.jpg,266,tbd,506.133503499589,513.148696559212,6.94953300355001,tool,0.751052019224971,0,2,1
60,1,animal,0,0,animals,1,a_050.jpg,50,tbd,515.714969827093,521.413737992934,5.65972968733794,animal,0.802324185392308,0,1,1
