trial,phase,object,toShock,seenBefore,shockedCategory,responseSide,filename,num,name,onsetFixationCross,onsetStimulus,interTrialTime,response,reactionTime,wasShocked,buttonPressed,isResponseCorrect
1,3,animal,0,0,animals,1,a_013.jpg,13,tbd,0.0153149364364253,5.68076302872851,5.58098755842356,animal,0.731728780534013,0,1,1
2,3,tool,0,0,animals,1,t_318.jpg,318,tbd,8.24707713418138,15.3623158033797,7.06101306555169,tool,0.537502372665131,0,2,1
3,3,animal,0,0,animals,1,a_147.jpg,147,tbd,17.9118314794018,25.8935371478251,7.93645620685446,animal,0.938620642909882,0,1,1
4,3,animal,0,0,animals,1,a_100.jpg,100,tbd,28.4432564897693,34.5420306133565,6.04480486683365,animal,0.98947137310779,0,1,1
5,3,animal,0,0,animals,1,a_072.jpg,72,tbd,37.0916360948245,43.1570474951768,6.01390072096349,animal,0.730628022351084,0,1,1
6,3,tool,0,0,animals,1,t_356.jpg,356,tbd,45.7066937098289,52.1719667456478,6.4184240827965,tool,0.711132863666535,0,2,1
7,3,animal,0,0,animals,1,a_057.jpg,57,tbd,54.7216443922061,61.5035781664628,6.73438586568566,animal,0.831801875752262,0,1,1
8,3,tool,0,0,animals,1,t_260.jpg,260,tbd,64.0695943102746,70.1685509313575,6.0503407701525,tool,0.797165198117909,0,2,1
9,3,tool,0,0,animals,1,t_324.jpg,324,tbd,72.7182330681885,77.2170795493062,4.45723777496939,tool,0.947816399858766,0,2,1
10,3,animal,0,0,animals,1,a_094.jpg,94,tbd,79.7835588326329,84.748990792018,4.91750670366101,animal,1.1373283425396,0,1,1
11,3,tool,0,0,animals,1,t_195.jpg,195,tbd,87.2988323335157,92.9976226220829,5.6431467684939,tool,0.944855386006566,0,2,1
12,3,animal,0,0,animals,1,a_061.jpg,61,tbd,95.5472264998821,103.178939176338,7.59109285584116,animal,0.946978964073878,0,1,1
13,3,animal,0,0,animals,1,a_123.jpg,123,tbd,105.728639594991,113.22708355527,7.43653778800302,animal,0.839122623280218,0,1,1
14,3,tool,0,0,animals,1,t_316.jpg,316,tbd,115.776743882207,121.892143559742,6.05826419779149,tool,1.01235893251987,0,2,1
15,3,tool,0,0,animals,1,t_258.jpg,258,tbd,124.441771171837,131.94024977136,7.43977242463514,tool,0.932610734161244,0,2,1
16,3,animal,0,0,animals,1,a_103.jpg,103,tbd,134.506534048575,139.805400479331,5.24339238678888,animal,1.48867932114672,0,1,1
17,3,animal,0,0,animals,1,a_066.jpg,66,tbd,142.355053750126,148.537086502814,6.13452269082503,animal,1.05035144723615,0,1,1
18,3,tool,0,0,animals,1,t_263.jpg,263,tbd,151.103395155793,157.118807374016,5.96871631737366,tool,0.784917659668736,0,2,1
19,3,tool,0,0,animals,1,t_302.jpg,302,tbd,159.685096462238,166.90028763077,7.16778360346982,tool,1.15678373024139,0,2,1
20,3,animal,0,0,animals,1,a_177.jpg,177,tbd,169.449925506345,174.748785201693,5.24385224941668,animal,0.837546216966985,0,1,1
21,3,animal,0,0,animals,1,a_063.jpg,63,tbd,177.298395173433,184.746789596387,7.40812417332818,animal,0.887893395199626,0,1,1
22,3,tool,0,0,animals,1,t_301.jpg,301,tbd,187.296548388581,193.195340858137,5.83162313493749,tool,1.0116276596018,0,2,1
23,3,tool,0,0,animals,1,t_328.jpg,328,tbd,195.744951471345,200.060661234255,4.26274237093671,tool,0.835651963520831,0,2,1
24,3,animal,0,0,animals,1,a_029.jpg,29,tbd,202.626974056773,209.542211827918,6.86031724940126,animal,0.871324290389566,0,1,1
25,3,animal,0,0,animals,1,a_116.jpg,116,tbd,212.091840402214,219.340200250071,7.18885502852574,animal,0.893737163872174,0,1,1
26,3,tool,0,0,animals,1,t_334.jpg,334,tbd,221.889977003354,229.355124953016,7.42161058159126,tool,0.967105647484914,0,2,1
27,3,animal,0,0,animals,1,a_165.jpg,165,tbd,231.921400249686,237.470274458236,5.48968140393766,animal,0.817249865409394,0,1,1
28,3,tool,0,0,animals,1,t_261.jpg,261,tbd,240.036514474195,246.068593941752,5.96964557389767,tool,0.709189858693208,0,2,1
29,3,animal,0,0,animals,1,a_082.jpg,82,tbd,248.618261645564,254.150466680378,5.47755940583229,animal,0.82455265184808,0,1,1
30,3,tool,0,0,animals,1,t_319.jpg,319,tbd,256.700051634887,262.665523365255,5.91363706861238,tool,0.708845390660827,0,2,1
31,3,tool,0,0,animals,1,t_228.jpg,228,tbd,265.215127884522,272.180332443688,6.91841017795307,tool,0.830332594506672,0,2,1
32,3,tool,0,0,animals,1,t_340.jpg,340,tbd,274.74658304386,281.928520217895,7.13034550042502,tool,0.858444906481054,0,2,1
33,3,animal,0,0,animals,1,a_042.jpg,42,tbd,284.47813403844,289.493569028758,4.97780542494932,animal,0.812689993882486,0,1,1
34,3,animal,0,0,animals,1,a_000.jpg,0,tbd,292.04335764919,299.958336908943,7.86356859647391,animal,0.854263500762499,0,1,1
35,3,animal,0,0,animals,1,a_080.jpg,80,tbd,302.508058816757,309.923193792738,7.35891216995672,animal,0.992818229644854,0,1,1
36,3,tool,0,0,animals,1,t_272.jpg,272,tbd,312.472850591604,317.321819961853,4.79031958159184,tool,1.01946093963943,0,2,1
37,3,tool,0,0,animals,1,t_269.jpg,269,tbd,319.88810520127,327.653170946875,7.71268524880761,tool,0.926385292342729,0,2,1
38,3,animal,0,0,animals,1,a_117.jpg,117,tbd,330.20282517987,338.201202908633,7.94505292322739,animal,0.863665168770694,0,1,1
39,3,tool,0,0,animals,1,t_291.jpg,291,tbd,340.76747788457,345.149898660931,4.3327839013493,tool,1.28927049756931,0,2,1
40,3,tool,0,0,animals,1,t_309.jpg,309,tbd,347.699514405879,352.865134251087,5.10242229967198,tool,1.65535245594356,0,2,1
41,3,tool,0,0,animals,1,t_293.jpg,293,tbd,355.414718564128,360.546947140798,5.0770190615394,tool,0.98373729537343,0,2,1
42,3,animal,0,0,animals,1,a_023.jpg,23,tbd,363.113248416901,370.445073446385,7.28100810440201,animal,1.08496054176931,0,1,1
43,3,animal,0,0,animals,1,a_108.jpg,108,tbd,373.011387872571,378.626869176841,5.55904242087842,animal,1.08951047055052,0,1,1
44,3,tool,0,0,animals,1,t_247.jpg,247,tbd,381.176475941244,385.842214297567,4.61511937811783,tool,1.18342676097018,0,2,1
45,3,animal,0,0,animals,1,a_171.jpg,171,tbd,388.408487990569,393.574031180414,5.11424954267214,animal,1.10880677431851,0,1,1
46,3,animal,0,0,animals,1,a_168.jpg,168,tbd,396.123688300013,401.072625244081,4.89874509452074,animal,1.00754183253639,0,1,1
47,3,animal,0,0,animals,1,a_156.jpg,156,tbd,403.62224708297,409.021104821842,5.34279511911405,animal,1.03034247310597,0,1,1
48,3,tool,0,0,animals,1,t_188.jpg,188,tbd,411.587407701614,417.836113621172,6.19484902896371,tool,1.12567480297048,0,2,1
49,3,tool,0,0,animals,1,t_284.jpg,284,tbd,420.385730969788,426.601118427367,6.15149156061971,tool,1.91295873668014,0,2,1
50,3,animal,0,0,animals,1,a_085.jpg,85,tbd,429.150797036126,434.782910629752,5.58006508445092,animal,0.747337929271453,0,1,1
51,3,tool,0,0,animals,1,t_306.jpg,306,tbd,437.332531827173,442.381450457345,4.99348429723163,tool,1.21107272609106,0,2,1
52,3,tool,0,0,animals,1,t_226.jpg,226,tbd,444.931092823193,452.046334699729,7.06050349650674,tool,1.28952612235707,0,2,1
53,3,animal,0,0,animals,1,a_049.jpg,49,tbd,454.595920937172,461.111365068402,6.45541840579638,animal,1.43481690116596,0,1,1
54,3,tool,0,0,animals,1,t_199.jpg,199,tbd,463.677563388977,470.459491069292,6.73933461159138,tool,0.891017021056086,0,2,1
55,3,tool,0,0,animals,1,t_266.jpg,266,tbd,473.009129265601,477.591477812725,4.53483093941484,tool,0.821319655787647,0,2,1
56,3,animal,0,0,animals,1,a_034.jpg,34,tbd,480.141109273626,488.072843663756,7.88692254732445,animal,1.2642664162322,0,1,1
57,3,tool,0,0,animals,1,t_220.jpg,220,tbd,490.639131469042,495.221494769918,4.52611924192479,tool,0.887829248452363,0,2,1
58,3,tool,0,0,animals,1,t_274.jpg,274,tbd,497.771124947883,505.002983365749,7.17689657312028,tool,0.842636261359985,0,2,1
59,3,animal,0,0,animals,1,a_091.jpg,91,tbd,507.552597507028,513.301375752043,5.69656203959301,animal,1.01466308368072,0,1,1
60,3,animal,0,0,animals,1,a_150.jpg,150,tbd,515.867691781898,520.20007296368,4.27443047391381,animal,1.4811494552232,0,1,1
