trial,phase,object,toShock,seenBefore,shockedCategory,responseSide,filename,num,name,onsetFixationCross,onsetStimulus,interTrialTime,response,reactionTime,wasShocked,buttonPressed,isResponseCorrect
1,2,animal,0,0,tools,2,a_033.jpg,33,tbd,0.0288233717237745,6.87729191133167,6.71992612246302,0,1.42003723406106,0,2,1
2,2,animal,0,0,tools,2,a_105.jpg,105,tbd,11.4600188688637,17.9754569556681,6.46975928026792,0,1.27222854208503,0,2,1
3,2,animal,0,0,tools,2,a_012.jpg,12,tbd,22.5246911853801,31.7395376127643,9.15400480963622,1,2.28369320625461,0,1,0
4,2,tool,0,0,tools,2,t_359.jpg,359,tbd,36.3054503709836,43.3207122140348,6.96936582844107,1,1.92496323894738,0,1,0
5,2,tool,1,0,tools,2,t_240.jpg,240,tbd,47.8699672915063,56.0683430265099,8.14616961843332,0,1.83372125451024,1,2,0
6,2,animal,0,0,tools,2,a_062.jpg,62,tbd,60.8342284581277,67.082935496107,6.19809527623094,0,1.64568761199916,0,2,1
7,2,animal,0,0,tools,2,a_047.jpg,47,tbd,71.6488546690216,79.4638012939458,7.7589824649401,0,2.69328400963514,0,2,1
8,2,tool,1,0,tools,2,t_282.jpg,282,tbd,84.0132337377427,91.1951227436284,7.13459497591197,1,1.30038231901017,1,1,1
9,2,animal,0,0,tools,2,a_098.jpg,98,tbd,95.9610229290456,103.14288691762,7.12765134355846,0,2.59213645271939,0,2,1
10,2,animal,0,0,tools,2,a_075.jpg,75,tbd,107.692164446525,115.007240487927,7.27507500667849,0,1.79120561628497,0,2,1
11,2,tool,1,0,tools,2,t_214.jpg,214,tbd,119.556633481347,126.471733385416,6.86731281879546,1,1.66311730132566,1,1,1
12,2,tool,0,0,tools,2,t_298.jpg,298,tbd,131.221123748811,141.252316808367,9.98572184550642,0,1.61010561792136,0,2,1
13,2,tool,1,0,tools,2,t_251.jpg,251,tbd,145.818430025815,155.26655967707,9.40324325519813,0,1.26938266251727,1,2,0
14,2,animal,0,0,tools,2,a_178.jpg,178,tbd,160.032426185337,168.713981787435,8.63939063761116,0,1.68447118050062,0,2,1
15,2,animal,0,0,tools,2,a_003.jpg,3,tbd,173.279963503629,180.34520287921,7.01256973765765,0,2.18571643322503,0,2,1
16,2,tool,0,0,tools,2,t_228.jpg,228,tbd,184.911146748701,193.90934133271,8.94974144305722,1,1.38305298759133,0,1,0
17,2,animal,0,0,tools,2,a_129.jpg,129,tbd,198.475294824245,205.70716809809,7.17245401533612,1,3.15972120126844,0,1,0
18,2,tool,1,0,tools,2,t_351.jpg,351,tbd,210.256431193931,217.255005207167,6.95257742052836,0,2.96334620972812,1,2,0
19,2,animal,0,0,tools,2,a_171.jpg,171,tbd,222.02090988287,228.386256929111,6.30128562224382,0,1.43961039382157,0,2,1
20,2,tool,1,0,tools,2,t_213.jpg,213,tbd,232.935553702103,241.583688741702,8.58838989449689,1,3.5815881277731,1,1,1
21,2,animal,0,0,tools,2,a_179.jpg,179,tbd,246.349707278247,255.381233581224,8.97355845881896,0,0.982463926121454,0,2,1
22,2,animal,0,0,tools,2,a_152.jpg,152,tbd,259.930534844502,267.528863303201,7.56173035966762,0,1.05928824140938,0,2,1
23,2,tool,1,0,tools,2,t_283.jpg,283,tbd,272.07821171449,281.626382708457,9.50592331155548,0,1.11324705457537,1,2,0
24,2,tool,0,0,tools,2,t_355.jpg,355,tbd,286.375618477696,295.157162501268,8.7336297379116,0,3.02105248788666,0,2,1
25,2,animal,0,0,tools,2,a_070.jpg,70,tbd,299.706454142503,308.97141024514,9.20727436446726,0,0.943335888483489,0,2,1
26,2,tool,1,0,tools,2,t_271.jpg,271,tbd,313.52057166806,323.151972050568,9.58555145941602,1,1.88224553782129,1,1,1
27,2,tool,0,0,tools,2,t_206.jpg,206,tbd,327.901218404055,335.299712746775,7.34402761553063,1,1.74099651325469,0,1,0
28,2,tool,0,0,tools,2,t_197.jpg,197,tbd,339.848962371756,348.697228527727,8.80181702859547,1,2.07097581624112,0,1,0
29,2,animal,0,0,tools,2,a_046.jpg,46,tbd,353.246486812547,359.345279214083,6.0472067541474,0,0.798236122331218,0,2,1
30,2,tool,1,0,tools,2,t_268.jpg,268,tbd,363.911172086748,371.343024448686,7.38333648436546,1,3.91316821797045,1,1,1
31,2,tool,1,0,tools,2,t_192.jpg,192,tbd,376.092212428445,383.074206699482,6.93085480206164,0,1.44133979567323,1,2,0
32,2,animal,0,0,tools,2,a_016.jpg,16,tbd,387.823397565853,395.90513297186,8.04018825895067,0,1.11287532298229,0,2,1
33,2,animal,0,0,tools,2,a_127.jpg,127,tbd,400.471038032445,408.986010091637,8.46684073913999,0,0.966457978415747,0,2,1
34,2,tool,0,0,tools,2,t_218.jpg,218,tbd,413.551932471899,420.383861681888,6.78043825667128,1,1.55309469273197,0,1,0
35,2,tool,1,0,tools,2,t_347.jpg,347,tbd,424.949819022239,433.264816483624,8.25976847845096,1,1.97563644518232,1,1,1
36,2,animal,0,0,tools,2,a_168.jpg,168,tbd,438.014064120049,445.095959251968,7.02555554103786,0,0.603828197103212,0,2,1
37,2,tool,1,0,tools,2,t_270.jpg,270,tbd,449.661887084722,459.476613364863,9.76505976481836,1,3.05987262015151,1,1,1
38,2,tool,0,0,tools,2,t_324.jpg,324,tbd,464.225839512059,472.907427187633,8.63096757562026,1,2.32654176716642,0,1,0
39,2,tool,1,0,tools,2,t_244.jpg,244,tbd,477.456708244621,486.704870674969,9.19671460189158,1,1.89660451250893,1,1,1
40,2,animal,0,0,tools,2,a_059.jpg,59,tbd,491.470769898182,499.48580466102,7.95463251719163,0,1.02414886130555,0,2,1
41,2,animal,0,0,tools,2,a_133.jpg,133,tbd,504.051741153611,512.483392414852,8.37531402240864,0,0.672067404940208,0,2,1
42,2,tool,1,0,tools,2,t_299.jpg,299,tbd,517.032672509637,525.68095925678,8.60683063439095,1,3.00397207871902,1,1,1
43,2,animal,0,0,tools,2,a_015.jpg,15,tbd,530.446857838523,540.078275861443,9.57782945681951,0,0.917229040827806,0,2,1
44,2,animal,0,0,tools,2,a_041.jpg,41,tbd,544.644246351921,551.825912767879,7.13787900415167,0,0.818113659383016,0,2,1
45,2,animal,0,0,tools,2,a_087.jpg,87,tbd,556.391956065148,564.523701397896,8.08724526782225,0,0.674662790656839,0,2,1
46,2,tool,1,0,tools,2,t_280.jpg,280,tbd,569.073002340439,576.104806399722,6.99271728487664,0,2.22904673775338,1,2,0
47,2,tool,1,0,tools,2,t_183.jpg,183,tbd,580.870807295855,587.869390289665,6.93694824610125,1,1.53490101319585,1,1,1
48,2,animal,0,0,tools,2,a_029.jpg,29,tbd,592.635275079812,600.567032343894,7.87515974559466,0,0.882785655164298,0,2,1
49,2,animal,0,0,tools,2,a_019.jpg,19,tbd,605.132943498439,613.581267835697,8.40364160239035,0,0.790968593293655,0,2,1
50,2,animal,0,0,tools,2,a_175.jpg,175,tbd,618.130531893742,627.495410025757,9.32414677399603,0,0.748267249639866,0,2,1
51,2,tool,0,0,tools,2,t_208.jpg,208,tbd,632.061257033351,638.826558406961,6.7150136240527,1,1.44780548779818,0,1,0
52,2,tool,1,0,tools,2,t_352.jpg,352,tbd,643.392498427635,650.391090081283,6.95280367313264,1,1.82255615661052,1,1,1
53,2,tool,0,0,tools,2,t_279.jpg,279,tbd,655.15698417274,661.605690505102,6.39559315873245,1,3.01435907407813,0,1,0
54,2,animal,0,0,tools,2,a_143.jpg,143,tbd,666.15494462037,674.003347088616,7.80166455002889,0,1.16420379034207,0,2,1
55,2,tool,1,0,tools,2,t_200.jpg,200,tbd,678.552590619636,688.000750099225,9.40473267756339,1,3.57544637776027,1,1,1
56,2,animal,0,0,tools,2,a_079.jpg,79,tbd,692.766670490932,701.74818365982,8.93124982512292,0,0.653342588632768,0,2,1
57,2,animal,0,0,tools,2,a_085.jpg,85,tbd,706.33079194549,715.995549705747,9.6224882638232,0,0.605430587988849,0,2,1
58,2,tool,1,0,tools,2,t_295.jpg,295,tbd,720.54483108347,729.342880759512,8.74251686022597,0,2.87872771891944,1,2,0
59,2,tool,1,0,tools,2,t_266.jpg,266,tbd,734.092296460954,743.95700668832,9.80318834251626,1,1.65612271757436,1,1,1
60,2,animal,0,0,tools,2,a_159.jpg,159,tbd,748.706222572004,756.221382581766,7.45978706015681,0,0.758247232583017,0,2,1
