trial,phase,object,toShock,seenBefore,shockedCategory,responseSide,filename,num,name,onsetFixationCross,onsetStimulus,interTrialTime,response,reactionTime,wasShocked,buttonPressed,isResponseCorrect
1,1,tool,0,0,animals,1,t_273.jpg,273,tbd,0.0393687034488721,7.17105171203389,6.97285379986597,tool,1.13958436390431,0,2,1
2,1,tool,0,0,animals,1,t_184.jpg,184,tbd,9.77077697151549,14.1699057303947,4.34702594284435,tool,0.857875905097217,0,2,1
3,1,animal,0,0,animals,1,a_104.jpg,104,tbd,16.7195407193663,21.2352549084023,4.46227520633264,animal,0.762772579120337,0,1,1
4,1,animal,0,0,animals,1,a_143.jpg,143,tbd,23.8015404685525,30.0835731891668,6.23703359866644,animal,0.566806511466666,0,1,1
5,1,animal,0,0,animals,1,a_010.jpg,10,tbd,32.6498664469266,39.9317064065656,7.22259229368524,animal,0.525968767777158,0,1,1
6,1,tool,0,0,animals,1,t_304.jpg,304,tbd,42.481350055348,47.8635966732909,5.33461929258117,tool,0.637401931196564,0,2,1
7,1,animal,0,0,animals,1,a_129.jpg,129,tbd,50.4131604593731,57.6283647779887,7.1474619766904,animal,0.645898488601006,0,1,1
8,1,animal,0,0,animals,1,a_046.jpg,46,tbd,60.1780013706289,65.2769012218405,5.054516519446,animal,0.590732927450063,0,1,1
9,1,tool,0,0,animals,1,t_323.jpg,323,tbd,67.826565397582,75.8080843989712,7.92222826659007,tool,1.13290251797889,0,2,1
10,1,animal,0,0,animals,1,a_064.jpg,64,tbd,78.3745482870788,84.1900574310373,5.77113308873149,animal,0.61113736627658,0,1,1
11,1,tool,0,0,animals,1,t_197.jpg,197,tbd,86.7396122365747,92.1052041138005,5.30993485556706,tool,0.713343661574299,0,2,1
12,1,animal,0,0,animals,1,a_050.jpg,50,tbd,94.6714521481035,102.419885925086,7.69052527105437,animal,0.651983449043428,0,1,1
13,1,animal,0,0,animals,1,a_030.jpg,30,tbd,104.986175013308,110.20179371991,5.16660817368148,animal,0.60730684326586,0,1,1
14,1,animal,0,0,animals,1,a_016.jpg,16,tbd,112.751378674419,119.416635930138,6.61622758849006,animal,1.80188445457566,0,1,1
15,1,tool,0,0,animals,1,t_357.jpg,357,tbd,121.98297826016,126.748587649447,4.71000127001593,tool,0.72414693600922,0,2,1
16,1,tool,0,0,animals,1,t_275.jpg,275,tbd,129.298231618963,136.146909121512,6.79169326934409,tool,0.661175357187858,0,2,1
17,1,tool,0,0,animals,1,t_257.jpg,257,tbd,138.69646649292,143.778719301024,5.02547153420907,tool,0.747598024595391,0,2,1
18,1,animal,0,0,animals,1,a_119.jpg,119,tbd,146.345040783353,152.577064699826,6.19382162740093,animal,0.687492201706618,0,1,1
19,1,tool,0,0,animals,1,t_337.jpg,337,tbd,155.110029552861,161.67533719585,6.51494786170185,tool,0.701539377148947,0,2,1
20,1,animal,0,0,animals,1,a_141.jpg,141,tbd,164.224929206501,171.906802714888,7.64903658532871,animal,0.660493797998242,0,1,1
21,1,tool,0,0,animals,1,t_281.jpg,281,tbd,174.456347256946,178.838759694231,4.32600354001675,tool,0.647747839323529,0,2,1
22,1,animal,0,0,animals,1,a_090.jpg,90,tbd,181.405057121529,185.820763324295,4.35432558355827,animal,0.635007974589826,0,1,1
23,1,tool,0,0,animals,1,t_283.jpg,283,tbd,188.38705786499,192.619464737544,4.19265800857493,tool,0.506466873684076,0,2,1
24,1,animal,0,0,animals,1,a_001.jpg,1,tbd,195.169099726516,202.36763006039,7.15231276981434,animal,0.613799456286642,0,1,1
25,1,tool,0,0,animals,1,t_268.jpg,268,tbd,204.933939354837,211.482562749604,6.50047458066157,tool,0.493091635419205,0,2,1
26,1,animal,0,0,animals,1,a_062.jpg,62,tbd,214.04886338424,221.264071551661,7.16252910580295,animal,0.661935175408644,0,1,1
27,1,tool,0,0,animals,1,t_215.jpg,215,tbd,223.813718087047,230.545622850937,6.69595908142565,tool,0.556625460480063,0,2,1
28,1,animal,0,0,animals,1,a_125.jpg,125,tbd,233.095268424122,237.244347709822,4.10434692805501,animal,0.607126911639625,0,1,1
29,1,animal,0,0,animals,1,a_124.jpg,124,tbd,239.793968907243,244.276369124572,4.43064130389954,animal,0.536396783740884,0,1,1
30,1,tool,0,0,animals,1,t_295.jpg,295,tbd,246.842664627468,251.824929655528,4.93071043513874,tool,0.678057498123962,0,2,1
31,1,animal,0,0,animals,1,a_071.jpg,71,tbd,254.374574907979,261.173182987711,6.76105354560809,animal,0.442120950803201,0,1,1
32,1,tool,0,0,animals,1,t_307.jpg,307,tbd,263.722788148445,271.287937669702,7.50336944805,tool,0.868658973306538,0,2,1
33,1,tool,0,0,animals,1,t_237.jpg,237,tbd,273.85415780017,280.369540029789,6.46248517620797,tool,0.621515347777176,0,2,1
34,1,tool,0,0,animals,1,t_298.jpg,298,tbd,282.919152888132,288.218072239955,5.24541987109963,tool,0.667172757320031,0,2,1
35,1,animal,0,0,animals,1,a_142.jpg,142,tbd,290.767683815364,297.516338257157,6.70250091494853,animal,0.601305915062312,0,1,1
36,1,animal,0,0,animals,1,a_173.jpg,173,tbd,300.08256993404,305.364800226636,5.22227663029444,tool,0.605109817173116,0,2,0
37,1,animal,0,0,animals,1,a_098.jpg,98,tbd,307.914438102211,314.696382139947,6.7284364511853,animal,0.813779185914655,0,1,1
38,1,tool,0,0,animals,1,t_296.jpg,296,tbd,317.262660643955,324.361230780886,7.05322290136363,tool,0.82233989006636,0,2,1
39,1,animal,0,0,animals,1,a_093.jpg,93,tbd,326.910842035561,333.859400834555,6.88860983390328,animal,0.891494894586913,0,1,1
40,1,animal,0,0,animals,1,a_136.jpg,136,tbd,336.409022031975,341.008061241995,4.53910943175071,animal,1.37309969225066,0,1,1
41,1,animal,0,0,animals,1,a_022.jpg,22,tbd,343.557689495559,351.355933221766,7.73865473780127,animal,0.818491726699904,0,1,1
42,1,tool,0,0,animals,1,t_243.jpg,243,tbd,353.922413788028,361.754126079603,7.76352221441243,tool,0.811664909125966,0,2,1
43,1,tool,0,0,animals,1,t_286.jpg,286,tbd,364.303790896812,370.552475647944,6.20874524882338,tool,1.15662238143614,0,2,1
44,1,tool,0,0,animals,1,t_352.jpg,352,tbd,373.102139502952,380.150667800167,6.99315121339123,tool,0.759779812628267,0,2,1
45,1,animal,0,0,animals,1,a_096.jpg,96,tbd,382.700269432829,388.915651117201,6.17372112222438,animal,1.55311278460158,0,1,1
46,1,tool,0,0,animals,1,t_348.jpg,348,tbd,391.465292200114,399.480363157642,7.95372533886331,tool,0.881810339423737,0,2,1
47,1,animal,0,0,animals,1,a_111.jpg,111,tbd,402.046624662762,407.112031893576,5.0176477359268,animal,0.889371316519828,0,1,1
48,1,tool,0,0,animals,1,t_355.jpg,355,tbd,409.661839437297,414.894101338203,5.17679619964591,tool,0.766519711359933,0,2,1
49,1,animal,0,0,animals,1,a_146.jpg,146,tbd,417.443669293823,422.992547030444,5.49541984217582,animal,0.796425887119995,0,1,1
50,1,tool,0,0,animals,1,t_198.jpg,198,tbd,425.54215924732,433.507209854293,7.90643561007492,tool,0.727132004891473,0,2,1
51,1,tool,0,0,animals,1,t_277.jpg,277,tbd,436.07350631939,444.055230269637,7.93717817667171,tool,1.14546982796264,0,2,1
52,1,tool,0,0,animals,1,t_210.jpg,210,tbd,446.604841524312,451.087190424243,4.43916164148702,tool,0.881647085952181,0,2,1
53,1,animal,0,0,animals,1,a_011.jpg,11,tbd,453.636849468245,461.052012668795,7.36007146858158,animal,1.0832118817043,0,1,1
54,1,animal,0,0,animals,1,a_145.jpg,145,tbd,463.601628093009,468.634069027486,4.97851349890602,animal,1.41750431581977,0,1,1
55,1,tool,0,0,animals,1,t_290.jpg,290,tbd,471.200202880579,479.115263285967,7.87185267220013,tool,1.04660108792359,0,2,1
56,1,animal,0,0,animals,1,a_131.jpg,131,tbd,481.66485112708,487.996898425042,6.27296513668181,animal,0.987325965411173,0,1,1
57,1,tool,0,0,animals,1,t_246.jpg,246,tbd,490.563207078022,497.178474132156,6.55775582130585,tool,0.806990535655132,0,2,1
58,1,tool,0,0,animals,1,t_314.jpg,314,tbd,499.728143118904,503.810548917,4.02180258982818,tool,0.784148199700212,0,2,1
59,1,tool,0,0,animals,1,t_189.jpg,189,tbd,506.37686109805,513.925385706827,7.5082259883381,tool,0.923663526122027,0,2,1
60,1,animal,0,0,animals,1,a_135.jpg,135,tbd,516.474971302803,523.373526750129,6.84743082242617,animal,0.754848852168834,0,1,1
