trial,phase,object,toShock,seenBefore,shockedCategory,responseSide,filename,num,name,onsetFixationCross,onsetStimulus,interTrialTime,response,reactionTime,wasShocked,buttonPressed,isResponseCorrect
1,2,animal,1,0,animals,2,a_042.jpg,42,tbd,0.0285959158541118,6.54378541413007,6.38997658735186,0,1.07421047529488,1,2,0
2,2,tool,0,0,animals,2,t_189.jpg,189,tbd,11.3264711565676,18.3252869928015,6.95399373216395,1,0.749320135530979,0,1,0
3,2,animal,1,0,animals,2,a_032.jpg,32,tbd,22.8912354848849,30.9063444779868,7.9636222433956,0,0.759719094800857,1,2,0
4,2,tool,0,0,animals,2,t_254.jpg,254,tbd,35.6556212143646,41.7877051886389,6.07065570624344,0,1.02195844726975,0,2,1
5,2,animal,1,0,animals,2,a_077.jpg,77,tbd,46.3370673695526,52.6358294501401,6.25724429777632,1,0.520243462530743,1,1,1
6,2,animal,0,0,animals,2,a_051.jpg,51,tbd,57.4017842286835,65.7335428465863,8.2679406898319,1,0.841176539957814,0,1,0
7,2,animal,0,0,animals,2,a_037.jpg,37,tbd,70.2828431251146,78.6645685145868,8.32453414272681,1,0.738738997219571,0,1,0
8,2,tool,0,0,animals,2,t_315.jpg,315,tbd,83.2138787359854,92.3621663812955,9.09418395802503,0,0.922876142115001,0,2,1
9,2,animal,1,0,animals,2,a_005.jpg,5,tbd,96.9114689049884,106.043103846415,9.08002018594928,1,0.779589760511499,1,1,1
10,2,tool,0,0,animals,2,t_183.jpg,183,tbd,110.809006023968,120.207220220334,9.33140941060288,0,0.870133385335521,0,2,1
11,2,animal,0,0,animals,2,a_085.jpg,85,tbd,124.773216502342,132.255113422362,7.4294716590716,1,0.747786046881629,0,1,0
12,2,animal,1,0,animals,2,a_067.jpg,67,tbd,136.804395739577,143.902948506709,7.05880702606537,1,0.891510876986558,1,1,1
13,2,animal,0,0,animals,2,a_107.jpg,107,tbd,148.652329482855,155.417665237545,6.70979340248585,1,0.904286823708389,0,1,0
14,2,tool,0,0,animals,2,t_269.jpg,269,tbd,159.966975779681,168.24857454189,8.23798149107879,0,0.938047037601791,0,2,1
15,2,tool,0,0,animals,2,t_309.jpg,309,tbd,172.798066300855,182.079573973543,9.23040257554245,0,0.788679468293594,0,2,1
16,2,animal,0,0,animals,2,a_074.jpg,74,tbd,186.62894000331,194.027548065631,7.34287876650197,1,0.784200365641027,0,1,0
17,2,animal,1,0,animals,2,a_121.jpg,121,tbd,198.593462238775,207.958469173125,9.30856268404111,1,0.800998684462229,1,1,1
18,2,animal,0,0,animals,2,a_089.jpg,89,tbd,212.724321636327,220.589514277834,7.80652648718159,1,1.18356601052255,0,1,0
19,2,tool,0,0,animals,2,t_255.jpg,255,tbd,225.15546661877,233.720501649747,8.50884177218407,0,0.581164711149995,0,2,1
20,2,tool,0,0,animals,2,t_322.jpg,322,tbd,238.28650723315,245.26847375326,6.92018880895568,0,0.717681601841377,0,2,1
21,2,tool,0,0,animals,2,t_188.jpg,188,tbd,249.834416792802,256.466548877739,6.58534388910894,0,0.678110582164663,0,2,1
22,2,animal,1,0,animals,2,a_126.jpg,126,tbd,261.032447013996,267.164425144813,6.07493182830513,1,0.976836419386018,1,1,1
23,2,tool,0,0,animals,2,t_296.jpg,296,tbd,271.913870589246,280.345703554159,8.38454391479401,0,0.697170102110249,0,2,1
24,2,animal,1,0,animals,2,a_139.jpg,139,tbd,284.894890612263,291.160327078605,6.19676135151621,0,1.38808443562311,1,2,0
25,2,tool,0,0,animals,2,t_184.jpg,184,tbd,295.926288913379,304.091384499643,8.11793887217937,0,0.674616144398442,0,2,1
26,2,tool,0,0,animals,2,t_208.jpg,208,tbd,308.640686061122,316.655848617428,7.95860721303072,0,0.667663512232139,0,2,1
27,2,animal,1,0,animals,2,a_141.jpg,141,tbd,321.205148254481,327.487078659522,6.23889739042194,1,0.832048343645965,1,1,1
28,2,tool,0,0,animals,2,t_323.jpg,323,tbd,332.25320503276,339.085233391109,6.77044343449246,0,0.599405708362156,0,2,1
29,2,tool,0,0,animals,2,t_335.jpg,335,tbd,343.65117931729,350.849835939306,7.14751635387324,0,0.572287652494651,0,2,1
30,2,tool,0,0,animals,2,t_204.jpg,204,tbd,355.399099012256,363.947478773448,8.49107419845832,0,0.55726012678133,0,2,1
31,2,animal,0,0,animals,2,a_132.jpg,132,tbd,368.49679412665,374.99553940058,6.44077980571388,1,1.00780172454279,0,1,0
32,2,animal,1,0,animals,2,a_099.jpg,99,tbd,379.561451649298,387.909931608962,8.2893973700655,1,1.20303126371937,1,1,1
33,2,animal,1,0,animals,2,a_020.jpg,20,tbd,392.675857841846,398.957977482157,6.23927748278623,1,0.77141030645862,1,1,1
34,2,tool,0,0,animals,2,t_228.jpg,228,tbd,403.707235295008,410.722551163957,6.96444583082347,0,0.540626667162996,0,2,1
35,2,tool,0,0,animals,2,t_290.jpg,290,tbd,415.271894742082,423.920142615912,8.60718512030993,0,0.599435857710432,0,2,1
36,2,tool,0,0,animals,2,t_308.jpg,308,tbd,428.486193744075,437.684441746199,9.14897247610113,0,0.62176722342474,0,2,1
37,2,animal,0,0,animals,2,a_125.jpg,125,tbd,442.233757740878,448.365892712453,6.06378843457808,1,0.741925847485618,0,1,0
38,2,animal,1,0,animals,2,a_160.jpg,160,tbd,452.915203575328,461.746862123053,8.78303337011781,1,0.880610604615867,1,1,1
39,2,animal,0,0,animals,2,a_048.jpg,48,tbd,466.512778733805,475.611109550416,9.03839805419009,1,0.910895945746233,0,1,0
40,2,tool,0,0,animals,2,t_203.jpg,203,tbd,480.160388339515,488.625468337924,8.41082351512786,0,0.59819877221571,0,2,1
41,2,tool,0,0,animals,2,t_262.jpg,262,tbd,493.191433829109,500.889931044464,7.65253221193667,0,0.645326373238277,0,2,1
42,2,tool,0,0,animals,2,t_196.jpg,196,tbd,505.455910648108,513.820815587855,8.34009036236819,0,0.64608042768441,0,2,1
43,2,animal,1,0,animals,2,a_133.jpg,133,tbd,518.386961975129,527.351782817438,8.91454959456618,1,0.854673505137271,1,1,1
44,2,tool,0,0,animals,2,t_199.jpg,199,tbd,532.101200678424,540.466250591633,8.30218131579677,0,0.676853290191957,0,2,1
45,2,tool,0,0,animals,2,t_344.jpg,344,tbd,545.015583906149,552.664135839364,7.58914689365885,0,0.626550385462451,0,2,1
46,2,animal,1,0,animals,2,a_130.jpg,130,tbd,557.21344221191,564.12869079008,6.85808957499785,1,0.62142595846035,1,1,1
47,2,animal,1,0,animals,2,a_010.jpg,10,tbd,568.878081709096,578.642683615818,9.71590417414431,1,0.710265824366616,1,1,1
48,2,animal,1,0,animals,2,a_118.jpg,118,tbd,583.408855533817,592.307127462977,8.83213524684647,1,1.10544680384828,1,1,1
49,2,tool,0,0,animals,2,t_227.jpg,227,tbd,597.073062676518,605.071413122279,7.95015559297631,0,0.583670955913931,0,2,1
50,2,tool,0,0,animals,2,t_267.jpg,267,tbd,609.637504663399,616.569483563987,6.88718293066733,0,0.584144364830081,0,2,1
51,2,animal,1,0,animals,2,a_137.jpg,137,tbd,621.135474393453,630.767025943065,9.59079750832372,1,0.599275488836611,1,1,1
52,2,animal,0,0,animals,2,a_173.jpg,173,tbd,635.532937422013,643.881313462646,8.29707898595295,1,0.791599464752835,0,1,0
53,2,tool,0,0,animals,2,t_359.jpg,359,tbd,648.430646777163,657.495583341651,9.01359968693312,0,0.551034927827459,0,2,1
54,2,tool,0,0,animals,2,t_240.jpg,240,tbd,662.061577057757,670.093351263514,7.98597429668635,0,0.561794075589205,0,2,1
55,2,animal,1,0,animals,2,a_128.jpg,128,tbd,674.642672069259,681.458013084048,6.76329244281819,1,0.541734495344372,1,1,1
56,2,tool,0,0,animals,2,t_270.jpg,270,tbd,686.207319328298,695.505557002668,9.24328820553508,0,0.605858631116917,0,2,1
57,2,tool,0,0,animals,2,t_235.jpg,235,tbd,700.054847338326,708.636391703413,8.54050360999116,0,0.53660621948984,0,2,1
58,2,tool,0,0,animals,2,t_343.jpg,343,tbd,713.20250633765,722.583987645695,9.33303817428664,0,0.560668927568258,0,2,1
59,2,animal,1,0,animals,2,a_170.jpg,170,tbd,727.133400823911,735.964893870958,8.80801145673303,1,0.745439208778407,1,1,1
60,2,animal,1,0,animals,2,a_110.jpg,110,tbd,740.714349899738,747.046473837935,6.2716626828031,1,0.7133705657684,1,1,1
