trial,phase,object,toShock,seenBefore,shockedCategory,responseSide,filename,num,name,onsetFixationCross,onsetStimulus,interTrialTime,response,reactionTime,wasShocked,buttonPressed,isResponseCorrect
1,2,animal,1,0,animals,1,a_024.jpg,24,tbd,0.028895069207465,9.06026055447273,8.91516731282374,0,0.525337340468468,1,2,0
2,2,tool,0,0,animals,1,t_196.jpg,196,tbd,13.8597080534,22.741341770783,8.83002838134093,0,1.39875795267835,0,2,1
3,2,tool,0,0,animals,1,t_287.jpg,287,tbd,27.307262788725,34.1559433740822,6.80402976754392,0,0.648690758334851,0,2,1
4,2,tool,0,0,animals,1,t_337.jpg,337,tbd,38.721915389162,48.1367783928863,9.36573774958486,0,0.586400480057819,0,2,1
5,2,animal,0,0,animals,1,a_096.jpg,96,tbd,52.7027324467099,62.0342603530498,9.27937859517978,1,0.490526501364002,0,1,0
6,2,animal,1,0,animals,1,a_029.jpg,29,tbd,66.583577472501,75.8984235413272,9.26304581051792,1,0.660972088057861,1,1,1
7,2,animal,1,0,animals,1,a_011.jpg,11,tbd,80.6477004403932,90.0125346098866,9.31848208754734,1,0.687492203703187,1,1,1
8,2,tool,0,0,animals,1,t_229.jpg,229,tbd,94.7784898183627,101.060479617652,6.24349108475213,0,0.79698049392573,0,2,1
9,2,animal,0,0,animals,1,a_102.jpg,102,tbd,105.609877242019,115.008051352022,9.35282362900623,0,0.658160830713314,0,2,1
10,2,animal,1,0,animals,1,a_059.jpg,59,tbd,119.574017273105,128.072430909291,8.44667940109671,0,1.20822719113949,1,2,0
11,2,tool,0,0,animals,1,t_307.jpg,307,tbd,132.821650075747,142.119826815792,9.25908426549665,0,1.26854782522332,0,2,1
12,2,animal,1,0,animals,1,a_098.jpg,98,tbd,146.685810698131,154.334302177118,7.59580903596755,0,0.981628302556601,1,2,0
13,2,tool,0,0,animals,1,t_359.jpg,359,tbd,159.100244876861,166.332057982292,7.19494341859691,0,1.13234120406287,0,2,1
14,2,animal,1,0,animals,1,a_076.jpg,76,tbd,170.898134557543,179.06320074798,8.11142184548394,1,1.15986811226958,1,1,1
15,2,tool,0,0,animals,1,t_231.jpg,231,tbd,183.829080583326,193.810526926318,9.93526996767308,0,0.708048220050841,0,2,1
16,2,animal,1,0,animals,1,a_134.jpg,134,tbd,198.359809406203,208.241107312241,9.82177308796853,1,0.833166331347456,1,1,1
17,2,tool,0,0,animals,1,t_346.jpg,346,tbd,213.007224813497,222.28875467633,9.22076977773858,0,0.839152882215785,0,2,1
18,2,animal,1,0,animals,1,a_095.jpg,95,tbd,226.838049664948,236.536194074732,9.65249249978493,1,1.02527992859541,1,1,1
19,2,animal,1,0,animals,1,a_116.jpg,116,tbd,241.285461030959,248.950618952098,7.61739234856991,1,1.01839980522709,1,1,1
20,2,animal,0,0,animals,1,a_080.jpg,80,tbd,253.699896492637,261.798310385412,8.03785461788531,0,0.837250592732744,0,2,1
21,2,tool,0,0,animals,1,t_286.jpg,286,tbd,266.364281117545,274.762668838204,8.34975507343664,0,0.660533640962967,0,2,1
22,2,tool,0,0,animals,1,t_300.jpg,300,tbd,279.328620326134,287.476945022027,8.10845049143648,0,0.658804549308115,0,2,1
23,2,tool,0,0,animals,1,t_233.jpg,233,tbd,292.042977977084,300.141404378591,8.04556449196458,0,0.583898412909548,0,2,1
24,2,animal,1,0,animals,1,a_119.jpg,119,tbd,304.707390185349,312.105933784054,7.3538132039055,1,0.988917365241832,1,1,1
25,2,tool,0,0,animals,1,t_182.jpg,182,tbd,316.855183420499,326.436672036591,9.52841627023065,0,0.759799731201383,0,2,1
26,2,tool,0,0,animals,1,t_304.jpg,304,tbd,330.985962855631,340.300824640556,9.26248280270613,0,0.580167282651928,0,2,1
27,2,tool,0,0,animals,1,t_188.jpg,188,tbd,344.866818144996,351.648695686434,6.72421721063566,0,0.55675574729139,0,2,1
28,2,animal,1,0,animals,1,a_108.jpg,108,tbd,356.198113517214,363.396545627835,7.1513893321069,0,1.41850186365173,1,2,0
29,2,animal,1,0,animals,1,a_176.jpg,176,tbd,368.16262207479,374.444689813103,6.23115967241551,1,1.09680036818463,1,1,1
30,2,animal,0,0,animals,1,a_128.jpg,128,tbd,379.193971202482,388.692126324872,9.4344184972764,0,0.874074375488817,0,2,1
31,2,tool,0,0,animals,1,t_347.jpg,347,tbd,393.241432860012,401.989760699124,8.69439561691833,0,0.642039320248841,0,2,1
32,2,animal,0,0,animals,1,a_003.jpg,3,tbd,406.539036122802,414.370850447032,7.78023610594205,0,1.03641494528347,0,2,1
33,2,animal,0,0,animals,1,a_077.jpg,77,tbd,418.936825669479,426.118547076282,7.13846436250338,1,0.841243444151587,0,1,0
34,2,animal,0,0,animals,1,a_163.jpg,163,tbd,430.668025205566,439.033013649421,8.32063902700446,0,0.803445263242793,0,2,1
35,2,tool,0,0,animals,1,t_338.jpg,338,tbd,443.599028001749,451.597482371498,7.93907943363351,0,0.797397772397744,0,2,1
36,2,tool,0,0,animals,1,t_189.jpg,189,tbd,456.146801094632,462.995446078213,6.80052483702351,0,0.976071859629883,0,2,1
37,2,animal,1,0,animals,1,a_109.jpg,109,tbd,467.544746198618,477.076230677206,9.47847921542054,0,0.928776022984493,1,2,0
38,2,animal,0,0,animals,1,a_078.jpg,78,tbd,481.842151246115,488.740811913723,6.85811099834624,1,1.45580290264661,0,1,0
39,2,animal,1,0,animals,1,a_072.jpg,72,tbd,493.290109468234,499.888796307957,6.5484018450333,1,0.970212641239414,1,1,1
40,2,tool,0,0,animals,1,t_201.jpg,201,tbd,504.654741573594,513.486343570116,8.7890302274184,0,0.66032291693773,0,2,1
41,2,animal,1,0,animals,1,a_046.jpg,46,tbd,518.035655878516,524.100929329021,6.02399841699595,0,0.854382423863171,1,2,0
42,2,animal,1,0,animals,1,a_101.jpg,101,tbd,528.867013473658,538.831613761936,9.92812897890765,0,1.28017292761888,1,2,0
43,2,tool,0,0,animals,1,t_261.jpg,261,tbd,543.581053274519,552.129391826238,8.49838686188277,0,0.837902650483557,0,2,1
44,2,tool,0,0,animals,1,t_294.jpg,294,tbd,556.678696436958,564.427185285904,7.70793119463071,0,0.867653867839181,0,2,1
45,2,tool,0,0,animals,1,t_302.jpg,302,tbd,568.976463596211,578.557963438088,9.53358117709203,0,1.02945944878593,0,2,1
46,2,animal,1,0,animals,1,a_161.jpg,161,tbd,583.107284727116,590.039078139313,6.88728971056523,1,1.26792495451446,1,1,1
47,2,tool,0,0,animals,1,t_247.jpg,247,tbd,594.805127323647,604.803249410154,9.95054772822828,0,0.777423572460066,0,2,1
48,2,tool,0,0,animals,1,t_272.jpg,272,tbd,609.352563001501,619.150657953683,9.74430402165514,0,0.820705389061004,0,2,1
49,2,tool,0,0,animals,1,t_224.jpg,224,tbd,623.69985223097,630.515285247992,6.75549370006842,0,0.819529247511127,0,2,1
50,2,animal,0,0,animals,1,a_012.jpg,12,tbd,635.081258225283,642.129701337173,6.98720276215532,1,1.45763398857707,0,1,0
51,2,tool,0,0,animals,1,t_263.jpg,263,tbd,646.679179466457,654.727584731414,7.98591380965075,0,0.905219835363823,0,2,1
52,2,tool,0,0,animals,1,t_330.jpg,330,tbd,659.276915963281,669.191702631666,9.87354107431325,0,0.839805902176522,0,2,1
53,2,tool,0,0,animals,1,t_258.jpg,258,tbd,673.740962018507,683.705707279782,9.906793925404,1,0.999616821465679,0,1,0
54,2,animal,1,0,animals,1,a_148.jpg,148,tbd,688.271687634017,695.586909606279,7.26906705518342,0,0.759680417141681,1,2,0
55,2,animal,0,0,animals,1,a_140.jpg,140,tbd,700.336173355139,709.984316514049,9.60652703319469,0,0.915998834293532,0,2,1
56,2,animal,1,0,animals,1,a_162.jpg,162,tbd,714.55029430239,720.815718050122,6.21069708527332,0,0.698026480515182,1,2,0
57,2,tool,0,0,animals,1,t_296.jpg,296,tbd,725.581656259551,732.580246300933,6.95092194387534,0,0.892975390363063,0,2,1
58,2,tool,0,0,animals,1,t_256.jpg,256,tbd,737.129543534707,747.110824056815,9.93803712888973,0,0.584838171497722,0,2,1
59,2,tool,0,0,animals,1,t_327.jpg,327,tbd,751.676956760991,761.074979162527,9.35913860545689,1,1.02455987466055,0,1,0
60,2,animal,1,0,animals,1,a_049.jpg,49,tbd,765.641091339553,775.655841059069,9.96467337316475,0,0.904391693154139,1,2,0
