trial,phase,object,toShock,seenBefore,shockedCategory,responseSide,filename,num,name,onsetFixationCross,onsetStimulus,interTrialTime,response,reactionTime,wasShocked,buttonPressed,isResponseCorrect
1,3,tool,0,0,animals,1,t_351.jpg,351,tbd,0.0153992227683375,4.86431391139604,4.76995133338159,tool,0.731878157461324,0,2,1
2,3,animal,0,0,animals,1,a_128.jpg,128,tbd,7.43063389807912,15.3788692427593,7.89023568802408,animal,0.645486236846864,0,1,1
3,3,tool,0,0,animals,1,t_224.jpg,224,tbd,17.9286233851026,23.1441451803335,5.16066931154202,tool,0.595513835895872,0,2,1
4,3,animal,0,0,animals,1,a_024.jpg,24,tbd,25.6937652564047,32.3756818011129,6.6247139670055,animal,0.559198875094353,0,1,1
5,3,animal,0,0,animals,1,a_089.jpg,89,tbd,34.9419677901292,42.7570108597206,7.75667000784242,animal,0.59519406538675,0,1,1
6,3,animal,0,0,animals,1,a_098.jpg,98,tbd,45.3066678200535,53.2550551920367,7.90060928344864,animal,0.674399969690967,0,1,1
7,3,tool,0,0,animals,1,t_256.jpg,256,tbd,55.8046213850134,60.5034889740432,4.65668517356637,tool,0.580151059941727,0,2,1
8,3,tool,0,0,animals,1,t_183.jpg,183,tbd,63.0699122366582,69.0686479083256,5.93933576054891,tool,0.573375581496293,0,2,1
9,3,tool,0,0,animals,1,t_350.jpg,350,tbd,71.6182500233654,76.6171300247506,4.93801687933913,tool,0.845148441159381,0,2,1
10,3,animal,0,0,animals,1,a_005.jpg,5,tbd,79.1668270766718,87.065231142793,7.83106574097915,animal,0.607379663140819,0,1,1
11,3,tool,0,0,animals,1,t_192.jpg,192,tbd,89.6148005430964,94.7803390324648,5.10076393789947,tool,0.658482326152352,0,2,1
12,3,tool,0,0,animals,1,t_255.jpg,255,tbd,97.3299841256871,101.895629290754,4.50976533893771,tool,0.573428181660802,0,2,1
13,3,tool,0,0,animals,1,t_268.jpg,268,tbd,104.445280157165,112.360323515416,7.85798557992792,tool,0.547056576255272,0,2,1
14,3,animal,0,0,animals,1,a_175.jpg,175,tbd,114.909944874419,122.075121898025,7.10384859591163,animal,0.666500643838845,0,1,1
15,3,tool,0,0,animals,1,t_254.jpg,254,tbd,124.624668205574,130.273347219808,5.59171133401487,tool,0.62759544569235,0,2,1
16,3,tool,0,0,animals,1,t_348.jpg,348,tbd,132.823161339168,138.77191819523,5.88332705653609,tool,0.684292649320014,0,2,1
17,3,tool,0,0,animals,1,t_253.jpg,253,tbd,141.338183336621,147.036977798593,5.64844301653151,tool,0.534491230975618,0,2,1
18,3,animal,0,0,animals,1,a_065.jpg,65,tbd,149.603264749807,157.434952563985,7.78341195416676,animal,0.755841060233706,0,1,1
19,3,animal,0,0,animals,1,a_145.jpg,145,tbd,159.984606637724,167.099828900679,7.0572099754894,animal,0.630214869713654,0,1,1
20,3,animal,0,0,animals,1,a_068.jpg,68,tbd,169.649404394904,175.431433163986,5.7295202804489,animal,0.555857802480659,0,1,1
21,3,tool,0,0,animals,1,t_286.jpg,286,tbd,177.981123159788,184.379812196919,6.3365589239483,tool,0.684739750714016,0,2,1
22,3,animal,0,0,animals,1,a_004.jpg,4,tbd,186.94606675413,193.777952139656,6.77686953709372,animal,0.529984936435994,0,1,1
23,3,animal,0,0,animals,1,a_080.jpg,80,tbd,196.344260579961,202.276320412007,5.86957731488682,animal,0.55080241354608,0,1,1
24,3,animal,0,0,animals,1,a_136.jpg,136,tbd,204.842624362054,210.55800519526,5.65623916193719,animal,0.552543992147548,0,1,1
25,3,tool,0,0,animals,1,t_338.jpg,338,tbd,213.124365594264,217.873212319631,4.69650833303644,tool,0.615415621126886,0,2,1
26,3,animal,0,0,animals,1,a_129.jpg,129,tbd,220.43961345169,227.221436631106,6.73013073827071,animal,0.612539610939166,0,1,1
27,3,animal,0,0,animals,1,a_075.jpg,75,tbd,229.771161586774,235.003375915764,5.17149360822053,animal,0.638780998864604,0,1,1
28,3,animal,0,0,animals,1,a_044.jpg,44,tbd,237.553010104074,243.61838088231,6.00354832460179,animal,0.532091508858684,0,1,1
29,3,tool,0,0,animals,1,t_339.jpg,339,tbd,246.18463062853,252.116766153494,5.88390315639706,tool,0.540000135959417,0,2,1
30,3,tool,0,0,animals,1,t_248.jpg,248,tbd,254.666378531981,260.481815461337,5.76130596170734,tool,0.551210385549894,0,2,1
31,3,tool,0,0,animals,1,t_189.jpg,189,tbd,263.048063924626,269.480095051094,6.3831766426509,tool,0.575181627372331,0,2,1
32,3,animal,0,0,animals,1,a_041.jpg,41,tbd,272.029693958807,278.578379740501,6.48169896403962,animal,0.599212525478833,0,1,1
33,3,tool,0,0,animals,1,t_185.jpg,185,tbd,281.144551227941,285.627003139684,4.43047131136368,tool,0.804825604444886,0,2,1
34,3,tool,0,0,animals,1,t_274.jpg,274,tbd,288.176585369296,294.558557817715,6.31730635034787,tool,0.56745774231149,0,2,1
35,3,animal,0,0,animals,1,a_157.jpg,157,tbd,297.124862088495,301.907138142496,4.71895161745433,animal,0.604182599513479,0,1,1
36,3,tool,0,0,animals,1,t_327.jpg,327,tbd,304.456785160114,310.655447961311,6.13486514092264,tool,0.590180692436661,0,2,1
37,3,tool,0,0,animals,1,t_200.jpg,200,tbd,313.205104921643,317.604144198891,4.33778629111227,tool,0.761678074776682,0,2,1
38,3,animal,0,0,animals,1,a_010.jpg,10,tbd,320.153783198192,325.985825742745,5.76326771473523,animal,0.722349509454943,0,1,1
39,3,animal,0,0,animals,1,a_058.jpg,58,tbd,328.535491362861,336.417121429115,7.83229354965426,animal,0.649289164558468,0,1,1
40,3,tool,0,0,animals,1,t_229.jpg,229,tbd,338.983439812134,345.865382592778,6.83045674655283,tool,0.58233011795528,0,2,1
41,3,tool,0,0,animals,1,t_294.jpg,294,tbd,348.414985670015,354.130480684065,5.66217193669657,tool,0.555484148876531,0,2,1
42,3,animal,0,0,animals,1,a_009.jpg,9,tbd,356.680054574626,362.812083552185,6.06627421100906,animal,0.623064775466446,0,1,1
43,3,animal,0,0,animals,1,a_066.jpg,66,tbd,365.361754945489,370.910600772805,5.49130534356385,animal,0.571817782736616,0,1,1
44,3,tool,0,0,animals,1,t_273.jpg,273,tbd,373.460194228061,380.508715313511,6.99329389622714,tool,0.613002428235632,0,2,1
45,3,tool,0,0,animals,1,t_331.jpg,331,tbd,383.058336993246,390.939945891141,7.81801849193943,tool,0.603170687821148,0,2,1
46,3,tool,0,0,animals,1,t_349.jpg,349,tbd,393.506310459671,398.021902078412,4.46701008147036,tool,0.664434163005353,0,2,1
47,3,animal,0,0,animals,1,a_048.jpg,48,tbd,400.588304172668,406.787002895928,6.13816726434245,animal,0.617621620687714,0,1,1
48,3,tool,0,0,animals,1,t_276.jpg,276,tbd,409.353259056802,416.68511926481,7.27397347851133,tool,0.737738264759173,0,2,1
49,3,tool,0,0,animals,1,t_306.jpg,306,tbd,419.234707909076,423.31715257226,4.03400700842515,tool,0.881030092073161,0,2,1
50,3,tool,0,0,animals,1,t_217.jpg,217,tbd,425.883414506323,433.46519541317,7.53605644978203,tool,0.571311666523798,0,2,1
51,3,animal,0,0,animals,1,a_067.jpg,67,tbd,436.014775076919,441.030422342786,4.95989879918364,animal,0.428192072674392,0,1,1
52,3,animal,0,0,animals,1,a_081.jpg,81,tbd,443.580007458992,448.16237017497,4.51669884397739,animal,0.637500633895797,0,1,1
53,3,animal,0,0,animals,1,a_123.jpg,123,tbd,450.711926104499,456.094135895121,5.32648985282739,animal,0.541948587157094,0,1,1
54,3,tool,0,0,animals,1,t_258.jpg,258,tbd,458.643795742049,463.759348359693,5.04592587390976,tool,0.695980469911774,0,2,1
55,3,animal,0,0,animals,1,a_069.jpg,69,tbd,466.308974208952,472.607652693978,6.23524398041264,animal,0.659025326626761,0,1,1
56,3,animal,0,0,animals,1,a_050.jpg,50,tbd,475.173914948774,480.372746776106,5.15215817607387,animal,0.556068203137329,0,1,1
57,3,animal,0,0,animals,1,a_103.jpg,103,tbd,482.922421697471,489.371084097751,6.39269405364386,animal,0.550119573612392,0,1,1
58,3,tool,0,0,animals,1,t_264.jpg,264,tbd,491.937339937893,496.403096750015,4.40431503325808,tool,0.600330278964066,0,2,1
59,3,animal,0,0,animals,1,a_084.jpg,84,tbd,498.969360608475,504.918118426735,5.88096721021149,animal,0.588566123987221,0,1,1
60,3,animal,0,0,animals,1,a_029.jpg,29,tbd,507.467675318463,515.049353590843,7.52326404783748,animal,0.632582518560412,0,1,1
