trial,phase,object,toShock,seenBefore,shockedCategory,responseSide,filename,num,name,onsetFixationCross,onsetStimulus,interTrialTime,response,reactionTime,wasShocked,buttonPressed,isResponseCorrect
1,1,tool,0,0,animals,1,t_182.jpg,182,tbd,0.0325145216188503,6.34772100452483,6.12887586870772,tool,0.993888836324231,0,2,1
2,1,animal,0,0,animals,1,a_119.jpg,119,tbd,8.94739911717966,15.496174062567,6.49280429504618,animal,0.577723073963398,0,1,1
3,1,animal,0,0,animals,1,a_108.jpg,108,tbd,18.0457986288961,25.094302715512,6.98407382869116,animal,0.670778216575627,0,1,1
4,1,animal,0,0,animals,1,a_060.jpg,60,tbd,27.6439314513664,33.8758648185051,6.17843909843116,animal,0.783561307290711,0,1,1
5,1,tool,0,0,animals,1,t_266.jpg,266,tbd,36.4422633847016,41.9577478787185,5.44641357309176,tool,0.677859994756318,0,2,1
6,1,tool,0,0,animals,1,t_314.jpg,314,tbd,44.5073506352237,50.4727310675135,5.90784588249653,tool,0.749143801186392,0,2,1
7,1,animal,0,0,animals,1,a_127.jpg,127,tbd,53.0389984540327,57.2047919259032,4.10941579123308,animal,0.631367222948938,0,1,1
8,1,animal,0,0,animals,1,a_018.jpg,18,tbd,59.7710926686241,64.8533368738661,5.01807556734314,animal,0.588977905400725,0,1,1
9,1,tool,0,0,animals,1,t_319.jpg,319,tbd,67.4029569499373,71.5353967860942,4.06534489699939,tool,0.654148546426995,0,2,1
10,1,tool,0,0,animals,1,t_311.jpg,311,tbd,74.0849209630862,78.7173529412917,4.57484579653333,tool,0.902492844007838,0,2,1
11,1,animal,0,0,animals,1,a_172.jpg,172,tbd,81.2836241766033,88.4488124258551,7.11740750996587,animal,0.681254629731939,0,1,1
12,1,animal,0,0,animals,1,a_072.jpg,72,tbd,90.9984042774481,97.0638180338665,5.99724807953724,animal,0.467598536660489,0,1,1
13,1,tool,0,0,animals,1,t_236.jpg,236,tbd,99.6301094753387,104.412433318512,4.72694870202252,tool,0.581122199197125,0,2,1
14,1,tool,0,0,animals,1,t_237.jpg,237,tbd,106.9619937383,111.810913237918,4.79066266529639,tool,0.717061870657744,0,2,1
15,1,tool,0,0,animals,1,t_202.jpg,202,tbd,114.360579178767,122.208979091399,7.78229140471182,tool,0.673150997145285,0,2,1
16,1,animal,0,0,animals,1,a_155.jpg,155,tbd,124.758549774634,131.340471483138,6.52739041792216,animal,0.566933625684669,0,1,1
17,1,tool,0,0,animals,1,t_342.jpg,342,tbd,133.890085786021,138.472487310656,4.529724041875,tool,0.619227489971763,0,2,1
18,1,animal,0,0,animals,1,a_042.jpg,42,tbd,141.038747961788,148.387274403474,7.29356658190127,animal,0.520665687505243,0,1,1
19,1,animal,0,0,animals,1,a_104.jpg,104,tbd,150.936870424592,155.502639392484,4.51300414740735,animal,1.02765782089409,0,1,1
20,1,animal,0,0,animals,1,a_054.jpg,54,tbd,158.05219019029,164.53417254935,6.41791502250586,animal,0.588284160554622,0,1,1
21,1,tool,0,0,animals,1,t_307.jpg,307,tbd,167.083763118012,173.532454063503,6.39433520777642,tool,0.529269663115656,0,2,1
22,1,tool,0,0,animals,1,t_212.jpg,212,tbd,176.082019935747,181.547559611827,5.41059672222683,tool,0.643372568921677,0,2,1
23,1,tool,0,0,animals,1,t_228.jpg,228,tbd,184.097136709715,189.02935402152,4.87455077855557,tool,0.56785541148588,0,2,1
24,1,animal,0,0,animals,1,a_045.jpg,45,tbd,191.579039527063,198.977512069617,7.33480545739206,animal,0.601033606408691,0,1,1
25,1,animal,0,0,animals,1,a_112.jpg,112,tbd,201.543783304929,208.942246866967,7.33744854782121,animal,0.667666788580618,0,1,1
26,1,tool,0,0,animals,1,t_235.jpg,235,tbd,211.508546968222,216.857427498817,5.28505659212396,tool,0.931907882074029,0,2,1
27,1,animal,0,0,animals,1,a_049.jpg,49,tbd,219.423705790248,225.922320385318,6.4424046365669,animal,0.614056316529513,0,1,1
28,1,animal,0,0,animals,1,a_082.jpg,82,tbd,228.488603808473,233.704195523434,5.1577536658626,animal,0.616506072949051,0,1,1
29,1,animal,0,0,animals,1,a_074.jpg,74,tbd,236.27044238306,242.085959495593,5.74732070747134,animal,0.512006545869326,0,1,1
30,1,tool,0,0,animals,1,t_340.jpg,340,tbd,244.652163697769,250.200953396861,5.49298393844931,tool,0.592258038799855,0,2,1
31,1,tool,0,0,animals,1,t_239.jpg,239,tbd,252.750599773014,257.216123412458,4.41440745334858,tool,0.588236050648447,0,2,1
32,1,tool,0,0,animals,1,t_357.jpg,357,tbd,259.765931117163,265.881328500177,6.05706246098516,tool,0.566372343446574,0,2,1
33,1,animal,0,0,animals,1,a_006.jpg,6,tbd,268.44759043424,274.163050809157,5.65867720448795,animal,0.625918615714681,0,1,1
34,1,animal,0,0,animals,1,a_170.jpg,170,tbd,276.712648433939,281.44491680639,4.68449468409296,animal,0.57133087110401,0,1,1
35,1,tool,0,0,animals,1,t_359.jpg,359,tbd,283.994587878962,290.926488627584,6.8788230497559,tool,0.552923700290421,0,2,1
36,1,tool,0,0,animals,1,t_279.jpg,279,tbd,293.476110307319,297.875165941935,4.33955302788004,tool,0.731547763390154,0,2,1
37,1,tool,0,0,animals,1,t_304.jpg,304,tbd,300.441416971086,308.006445046424,7.50809094511514,tool,0.590581568938205,0,2,1
38,1,animal,0,0,animals,1,a_177.jpg,177,tbd,310.556142739811,317.787883667325,7.17986721905628,animal,0.489440434038215,0,1,1
39,1,animal,0,0,animals,1,a_035.jpg,35,tbd,320.337575908255,327.702758640904,7.31082881051877,animal,0.503879499795175,0,1,1
40,1,tool,0,0,animals,1,t_324.jpg,324,tbd,330.252277686173,335.851154608524,5.53818327470375,tool,0.633664310599897,0,2,1
41,1,animal,0,0,animals,1,a_163.jpg,163,tbd,338.417472991544,342.749842202359,4.27330555016257,animal,0.556356502458129,0,1,1
42,1,animal,0,0,animals,1,a_122.jpg,122,tbd,345.299460033301,351.76475915985,6.40939133404239,animal,0.504631297261312,0,1,1
43,1,animal,0,0,animals,1,a_091.jpg,91,tbd,354.314365765148,361.3962629376,7.01230999073077,animal,0.510425012888845,0,1,1
44,1,tool,0,0,animals,1,t_215.jpg,215,tbd,363.945857675788,371.444342374111,7.4448658470793,tool,0.577676246988176,0,2,1
45,1,tool,0,0,animals,1,t_238.jpg,238,tbd,373.99395507333,380.792442882761,6.75320132071587,tool,0.627863538852807,0,2,1
46,1,tool,0,0,animals,1,t_190.jpg,190,tbd,383.358795904913,390.023911508207,6.61775292127595,tool,0.596679659904794,0,2,1
47,1,animal,0,0,animals,1,a_008.jpg,8,tbd,392.573676876195,397.555943564799,4.93030784638867,animal,0.548873166927706,0,1,1
48,1,tool,0,0,animals,1,t_321.jpg,321,tbd,400.122219290369,405.971010176172,5.80073466724378,tool,0.546080867976798,0,2,1
49,1,tool,0,0,animals,1,t_322.jpg,322,tbd,408.520627686381,416.368981413504,7.78794928486503,tool,0.562353883354945,0,2,1
50,1,animal,0,0,animals,1,a_094.jpg,94,tbd,418.918596357852,423.267668686606,4.30334115070694,animal,0.693972643780626,0,1,1
51,1,tool,0,0,animals,1,t_198.jpg,198,tbd,425.833957562216,431.399409966926,5.49848810350248,tool,0.507473630514824,0,2,1
52,1,animal,0,0,animals,1,a_023.jpg,23,tbd,433.949034533255,439.814480747823,5.81301899574081,animal,0.536600971342523,0,1,1
53,1,animal,0,0,animals,1,a_160.jpg,160,tbd,442.380748775808,448.279509496699,5.84187223805888,animal,0.661914447472554,0,1,1
54,1,tool,0,0,animals,1,t_288.jpg,288,tbd,450.829137270356,458.327570651446,7.44540503183641,tool,0.476165948742164,0,2,1
55,1,animal,0,0,animals,1,a_133.jpg,133,tbd,460.877209009282,468.558934718029,7.62288905547478,animal,0.535994786525407,0,1,1
56,1,animal,0,0,animals,1,a_156.jpg,156,tbd,471.125243158335,475.207694556906,4.02016393457702,animal,0.542487699455023,0,1,1
57,1,tool,0,0,animals,1,t_353.jpg,353,tbd,477.757279673112,483.756056398566,5.94092545960075,tool,0.57060152492727,0,2,1
58,1,tool,0,0,animals,1,t_328.jpg,328,tbd,486.305573840171,490.621266233129,4.26936116091802,tool,0.593440901025133,0,2,1
59,1,tool,0,0,animals,1,t_315.jpg,315,tbd,493.170984453409,497.703364184256,4.47748631869831,tool,0.635611158133997,0,2,1
60,1,animal,0,0,animals,1,a_173.jpg,173,tbd,500.26965466353,508.067979220013,7.73793958161862,animal,0.674262335976664,0,1,1
