trial,phase,object,toShock,seenBefore,shockedCategory,responseSide,filename,num,name,onsetFixationCross,onsetStimulus,interTrialTime,response,reactionTime,wasShocked,buttonPressed,isResponseCorrect
1,1,animal,0,0,animals,2,a_084.jpg,84,tbd,0.0395683801361884,6.23823847313736,6.02143502329237,animal,0.717362441863315,0,2,1
2,1,animal,0,0,animals,2,a_026.jpg,26,tbd,8.82132462457946,12.920633049847,4.036832627634,animal,0.655265689397083,0,2,1
3,1,tool,0,0,animals,2,t_237.jpg,237,tbd,15.4702531039105,20.6525713450359,5.11424970706788,tool,0.538818963295626,0,1,1
4,1,animal,0,0,animals,2,a_127.jpg,127,tbd,23.2022385475485,30.2009026748275,6.93298729053421,animal,0.514800837763914,0,2,1
5,1,animal,0,0,animals,2,a_175.jpg,175,tbd,32.7671991673677,40.7657106234786,7.93386157647231,animal,0.571533251392566,0,2,1
6,1,animal,0,0,animals,2,a_025.jpg,25,tbd,43.3153075844244,49.3474804672024,5.96603064038844,animal,0.709111142554548,0,2,1
7,1,tool,0,0,animals,2,t_218.jpg,218,tbd,51.8971499148792,57.8960064848071,5.94114742914099,tool,0.552958045446758,0,1,1
8,1,tool,0,0,animals,2,t_252.jpg,252,tbd,60.4623103543155,66.6777685025298,6.16921479494876,tool,0.586640961543026,0,1,1
9,1,tool,0,0,animals,2,t_317.jpg,317,tbd,69.2440980310581,75.2261758471676,5.93735537925213,tool,0.545649394380007,0,1,1
10,1,animal,0,0,animals,2,a_122.jpg,122,tbd,77.7758831418986,83.274868969139,5.44173262067604,animal,0.630307481525733,0,2,1
11,1,tool,0,0,animals,2,t_319.jpg,319,tbd,85.8244887024649,92.7231987593894,6.84850911479907,tool,0.570555321998427,0,1,1
12,1,tool,0,0,animals,2,t_280.jpg,280,tbd,95.2727482511483,99.9218967565745,4.58052520908353,tool,0.541171895416028,0,1,1
13,1,tool,0,0,animals,2,t_241.jpg,241,tbd,102.471543111133,110.1367721243,7.60955925360111,tool,0.603790808936083,0,1,1
14,1,animal,0,0,animals,2,a_162.jpg,162,tbd,112.703071824218,118.301911651636,5.54272890026108,animal,0.508015309964321,0,2,1
15,1,tool,0,0,animals,2,t_316.jpg,316,tbd,120.851654868994,127.100432216699,6.19299347848443,tool,0.575930886657261,0,1,1
16,1,animal,0,0,animals,2,a_138.jpg,138,tbd,129.650067666174,137.215326251361,7.49806092179875,animal,0.519491627330581,0,2,1
17,1,tool,0,0,animals,2,t_222.jpg,222,tbd,139.78160446185,145.313962410309,5.46903578619257,tool,0.511238082857744,0,1,1
18,1,tool,0,0,animals,2,t_348.jpg,348,tbd,147.863526335266,155.312094112926,7.39863237820358,tool,0.560590000163756,0,1,1
19,1,animal,0,0,animals,2,a_113.jpg,113,tbd,157.861737260107,164.343892053276,6.42602033228228,animal,0.692210187654382,0,2,1
20,1,animal,0,0,animals,2,a_096.jpg,96,tbd,166.893484523894,171.459222291276,4.51353756516339,animal,0.639213727316019,0,2,1
21,1,tool,0,0,animals,2,t_263.jpg,263,tbd,174.008900398872,179.324554453703,5.25177707688177,tool,0.611129288613483,0,1,1
22,1,tool,0,0,animals,2,t_326.jpg,326,tbd,181.874173224816,187.706356820235,5.78337522319744,tool,0.636938092992978,0,1,1
23,1,animal,0,0,animals,2,a_179.jpg,179,tbd,190.272693404993,196.22155497843,5.89158974398745,animal,0.563965123487378,0,2,1
24,1,tool,0,0,animals,2,t_283.jpg,283,tbd,198.787848905068,203.770217951053,4.9329783797569,tool,0.604895750478363,0,1,1
25,1,animal,0,0,animals,2,a_078.jpg,78,tbd,206.319840250281,212.30205341772,5.91335696237009,animal,0.584379118943389,0,2,1
26,1,animal,0,0,animals,2,a_098.jpg,98,tbd,214.86834285403,222.416916020084,7.49089501658804,animal,0.576827990138781,0,2,1
27,1,animal,0,0,animals,2,a_023.jpg,23,tbd,224.96655275251,230.748787858411,5.73277578625453,animal,0.539355557548106,0,2,1
28,1,tool,0,0,animals,2,t_345.jpg,345,tbd,233.298417855345,239.197235680153,5.84226924874773,tool,0.66939418720267,0,1,1
29,1,tool,0,0,animals,2,t_245.jpg,245,tbd,241.763604659424,247.562337552877,5.74674703356753,tool,0.656602845069074,0,1,1
30,1,animal,0,0,animals,2,a_086.jpg,86,tbd,250.112100976714,255.894350515813,5.71842483394058,animal,0.552932386426846,0,2,1
31,1,animal,0,0,animals,2,a_159.jpg,159,tbd,258.46063193368,262.909803339781,4.38172142414371,animal,0.635861697110158,0,2,1
32,1,tool,0,0,animals,2,t_355.jpg,355,tbd,265.476067437809,271.15830934335,5.62560109219595,tool,0.828830035162582,0,1,1
33,1,tool,0,0,animals,2,t_338.jpg,338,tbd,273.707958905287,279.556723038595,5.80089372485393,tool,0.682798459173,0,1,1
34,1,animal,0,0,animals,2,a_057.jpg,57,tbd,282.123134675987,288.538599752137,6.34946739720575,animal,0.596312808338325,0,2,1
35,1,animal,0,0,animals,2,a_008.jpg,8,tbd,291.088207618166,299.086722281654,7.9461546203458,animal,0.575689691870821,0,2,1
36,1,animal,0,0,animals,2,a_073.jpg,73,tbd,301.63634778826,306.135459023959,4.43995168066449,animal,0.665321459276811,0,2,1
37,1,tool,0,0,animals,2,t_253.jpg,253,tbd,308.701769949698,314.000770338433,5.24240892809968,tool,0.768384761361858,0,1,1
38,1,tool,0,0,animals,2,t_287.jpg,287,tbd,316.56704726597,321.566076713544,4.93804449960531,tool,0.69734936859254,0,1,1
39,1,tool,0,0,animals,2,t_236.jpg,236,tbd,324.115705427527,328.414820640375,4.23865312897954,tool,0.698009446878359,0,1,1
40,1,animal,0,0,animals,2,a_065.jpg,65,tbd,330.981156904396,336.246769135025,5.20753964348178,animal,0.591393653494833,0,2,1
41,1,tool,0,0,animals,2,t_191.jpg,191,tbd,338.796411961468,343.495473995998,4.64964474679367,tool,0.798956842038706,0,1,1
42,1,tool,0,0,animals,2,t_238.jpg,238,tbd,346.061822127315,351.227518776119,5.10200028026862,tool,0.789308088361395,0,1,1
43,1,animal,0,0,animals,2,a_092.jpg,92,tbd,353.777126642148,361.725688851163,7.89026791139888,animal,0.585696825715786,0,2,1
44,1,animal,0,0,animals,2,a_038.jpg,38,tbd,364.291933500291,371.957150646161,7.60689098262113,animal,0.642714900574674,0,2,1
45,1,animal,0,0,animals,2,a_072.jpg,72,tbd,374.506823621953,382.305323980538,7.74133677906191,animal,0.641036800676602,0,2,1
46,1,tool,0,0,animals,2,t_293.jpg,293,tbd,384.854976108376,390.303914017397,5.39199320127818,tool,0.633745790185685,0,1,1
47,1,animal,0,0,animals,2,a_109.jpg,109,tbd,392.853552353512,400.818585203472,7.91382568011802,animal,0.666713140366028,0,2,1
48,1,tool,0,0,animals,2,t_209.jpg,209,tbd,403.385034046443,407.667474424503,4.22481709821042,tool,0.836047596709022,0,1,1
49,1,tool,0,0,animals,2,t_358.jpg,358,tbd,410.233809405573,415.816106221417,5.52169752696799,tool,0.791768146889808,0,1,1
50,1,animal,0,0,animals,2,a_083.jpg,83,tbd,418.365748085648,424.647842387677,6.21801186733452,animal,0.685408302229462,0,2,1
51,1,animal,0,0,animals,2,a_080.jpg,80,tbd,427.214147860875,432.096308491471,4.85029246391654,animal,0.726323854546308,0,2,1
52,1,animal,0,0,animals,2,a_157.jpg,157,tbd,434.662832066337,440.511713589661,5.78516833301339,animal,0.677279204002843,0,2,1
53,1,tool,0,0,animals,2,t_194.jpg,194,tbd,443.078012968841,451.026505052392,7.89186540373865,tool,0.746965253065582,0,1,1
54,1,tool,0,0,animals,2,t_256.jpg,256,tbd,453.576178348922,461.607966025665,7.97601670412676,tool,0.704121425407038,0,1,1
55,1,tool,0,0,animals,2,t_202.jpg,202,tbd,464.157599550714,469.873190484355,5.66370627929321,tool,0.77229840336463,0,1,1
56,1,animal,0,0,animals,2,a_019.jpg,19,tbd,472.422824971618,479.6714288002,7.18955240028195,animal,0.781489143537328,0,2,1
57,1,animal,0,0,animals,2,a_027.jpg,27,tbd,482.237764102008,489.336434259157,7.04173061561272,animal,0.718890115757631,0,2,1
58,1,tool,0,0,animals,2,t_340.jpg,340,tbd,491.902710865956,496.98503622746,5.02582278427073,tool,0.788649613764619,0,1,1
59,1,tool,0,0,animals,2,t_247.jpg,247,tbd,499.534710806941,507.016622480897,7.41861051087411,tool,1.1886406972551,0,1,1
60,1,animal,0,0,animals,2,a_119.jpg,119,tbd,509.566214310038,514.948549421969,5.32488994051225,animal,0.859992914771738,0,2,1
