trial,phase,object,toShock,seenBefore,shockedCategory,responseSide,filename,num,name,onsetFixationCross,onsetStimulus,interTrialTime,response,reactionTime,wasShocked,buttonPressed,isResponseCorrect
1,3,tool,0,0,animals,2,t_325.jpg,325,tbd,0.0154427802362989,4.33122416795322,4.22647140139934,tool,0.860585665353028,0,1,1
2,3,animal,0,0,animals,2,a_153.jpg,153,tbd,6.91420543815138,13.5296181057529,6.55362706234244,animal,0.642674514841474,0,2,1
3,3,animal,0,0,animals,2,a_095.jpg,95,tbd,16.0792497063753,21.1782608077506,5.04567736736883,tool,0.742410483526783,0,1,0
4,3,animal,0,0,animals,2,a_002.jpg,2,tbd,23.7278946535371,28.8435167628882,5.06091096486276,animal,0.709504714994637,0,2,1
5,3,tool,0,0,animals,2,t_272.jpg,272,tbd,31.3931878142539,36.9754339535334,5.52374628937481,tool,0.857911995484756,0,1,1
6,3,animal,0,0,animals,2,a_075.jpg,75,tbd,39.5251325883451,45.4573004034669,5.87055660647687,animal,0.703439884915042,0,2,1
7,3,animal,0,0,animals,2,a_001.jpg,1,tbd,48.0235927264166,52.5560039173415,4.48011665424587,animal,0.725144849806838,0,2,1
8,3,tool,0,0,animals,2,t_320.jpg,320,tbd,55.122352369397,62.4876155732077,7.31228919786526,tool,0.736932924264238,0,1,1
9,3,animal,0,0,animals,2,a_018.jpg,18,tbd,65.0539508750157,72.4192044566939,7.3148128963563,animal,0.946889778622335,0,2,1
10,3,animal,0,0,animals,2,a_012.jpg,12,tbd,74.968854660106,81.1676190500048,6.15372912435737,animal,0.555870050684916,0,2,1
11,3,animal,0,0,animals,2,a_169.jpg,169,tbd,83.7172807999759,89.4495029480718,5.67181909827104,animal,0.705380989766581,0,2,1
12,3,tool,0,0,animals,2,t_214.jpg,214,tbd,91.9991425671383,96.2317021313452,4.17760261429991,tool,0.742505101162806,0,1,1
13,3,animal,0,0,animals,2,a_176.jpg,176,tbd,98.7812163419521,104.280213074276,5.44296939372819,animal,0.552289013727204,0,2,1
14,3,tool,0,0,animals,2,t_268.jpg,268,tbd,106.846552224937,110.912383327004,4.01445759239071,tool,0.600498463174517,0,1,1
15,3,tool,0,0,animals,2,t_354.jpg,354,tbd,113.478692007579,119.010856230438,5.4889674972177,tool,0.630340544736555,0,1,1
16,3,animal,0,0,animals,2,a_024.jpg,24,tbd,121.577285508406,127.45945351597,5.82398844929241,animal,0.657195595650592,0,2,1
17,3,animal,0,0,animals,2,a_101.jpg,101,tbd,130.009119114794,137.574351399486,7.51526886705819,animal,0.552787119449931,0,2,1
18,3,tool,0,0,animals,2,t_185.jpg,185,tbd,140.140646288337,147.389299189795,7.19897839987923,tool,0.624227603994768,0,1,1
19,3,animal,0,0,animals,2,a_043.jpg,43,tbd,149.938910263202,155.871124264559,5.87310931042366,animal,0.7337733367076,0,2,1
20,3,tool,0,0,animals,2,t_285.jpg,285,tbd,158.437430058494,163.136370533417,4.65573724739074,tool,0.628896262656781,0,1,1
21,3,tool,0,0,animals,2,t_219.jpg,219,tbd,165.702789227039,171.75163341649,5.98416064092779,tool,0.63011474536188,0,1,1
22,3,tool,0,0,animals,2,t_336.jpg,336,tbd,174.317924777226,180.583377601194,6.21173270568024,tool,0.630781879877759,0,1,1
23,3,animal,0,0,animals,2,a_148.jpg,148,tbd,183.133066293135,187.548868785396,4.35759466954234,animal,0.610629606424482,0,2,1
24,3,animal,0,0,animals,2,a_039.jpg,39,tbd,190.098484028394,195.597432329318,5.45702113806736,animal,0.551429757299502,0,2,1
25,3,animal,0,0,animals,2,a_058.jpg,58,tbd,198.163730104809,204.979101589684,6.76561231191975,animal,0.623146717783584,0,2,1
26,3,tool,0,0,animals,2,t_225.jpg,225,tbd,207.528734473257,214.827370824647,7.23930956049122,tool,0.749378190367224,0,1,1
27,3,tool,0,0,animals,2,t_221.jpg,221,tbd,217.393668920876,221.926079791063,4.47800411497868,tool,0.776960353756749,0,1,1
28,3,tool,0,0,animals,2,t_284.jpg,284,tbd,224.475757257183,230.691232725236,6.1652716086824,tool,0.808423443897937,0,1,1
29,3,animal,0,0,animals,2,a_171.jpg,171,tbd,233.257509011298,240.272863689515,6.96718067356253,animal,0.780121865740057,0,2,1
30,3,tool,0,0,animals,2,t_277.jpg,277,tbd,242.822516779567,250.737657269115,7.85642008558879,tool,0.792751556048188,0,1,1
31,3,animal,0,0,animals,2,a_167.jpg,167,tbd,253.287310679904,258.7696126917,5.44125794167943,animal,0.562103268081955,0,2,1
32,3,tool,0,0,animals,2,t_223.jpg,223,tbd,261.319236594617,267.601429042397,6.21297733199645,tool,0.618762232766585,0,1,1
33,3,tool,0,0,animals,2,t_334.jpg,334,tbd,270.167679990177,276.916379398609,6.70177391481834,tool,0.603330577489942,0,1,1
34,3,tool,0,0,animals,2,t_311.jpg,311,tbd,279.482705719759,284.264892394261,4.72710255989309,tool,0.652158730053543,0,1,1
35,3,animal,0,0,animals,2,a_016.jpg,16,tbd,286.831403781092,291.213863018531,4.32769883635806,animal,0.757489648018236,0,2,1
36,3,tool,0,0,animals,2,t_356.jpg,356,tbd,293.763479223742,299.212388587103,5.40973853598267,tool,0.568290299243927,0,1,1
37,3,animal,0,0,animals,2,a_108.jpg,108,tbd,301.778766867769,307.227628120469,5.40216935124006,animal,0.583398971607494,0,2,1
38,3,tool,0,0,animals,2,t_207.jpg,207,tbd,309.777318095361,315.742872144162,5.91245099536492,tool,0.629653524480091,0,1,1
39,3,tool,0,0,animals,2,t_327.jpg,327,tbd,318.30915324129,322.991526649309,4.62144156741464,tool,0.764350549188293,0,1,1
40,3,tool,0,0,animals,2,t_197.jpg,197,tbd,325.557863554805,329.790383026794,4.17687147681232,tool,0.743824295520881,0,1,1
41,3,animal,0,0,animals,2,a_151.jpg,151,tbd,332.356663803184,339.20538142952,6.79273585531358,animal,0.814141235733587,0,2,1
42,3,tool,0,0,animals,2,t_233.jpg,233,tbd,341.771601265738,346.254010403942,4.44040325284429,tool,0.736956979595107,0,1,1
43,3,tool,0,0,animals,2,t_312.jpg,312,tbd,348.820429739039,353.819469770959,4.94434315466764,tool,0.719864223521654,0,1,1
44,3,animal,0,0,animals,2,a_028.jpg,28,tbd,356.385758886531,364.117608337364,7.67645095903814,animal,0.734130638558327,0,2,1
45,3,animal,0,0,animals,2,a_145.jpg,145,tbd,366.683932092613,374.46581599068,7.73310965577678,animal,0.733508407327463,0,2,1
46,3,animal,0,0,animals,2,a_087.jpg,87,tbd,377.032144877733,384.163964243365,7.08968068662661,animal,0.602792058811247,0,2,1
47,3,tool,0,0,animals,2,t_295.jpg,295,tbd,386.730393521333,392.812545042977,6.02839862536154,tool,0.742618321587543,0,1,1
48,3,animal,0,0,animals,2,a_103.jpg,103,tbd,395.36218947311,400.427869507698,5.02361089733663,animal,0.609651356292943,0,2,1
49,3,animal,0,0,animals,2,a_104.jpg,104,tbd,402.977505598649,408.526450179015,5.50734135598924,animal,0.735443738899448,0,2,1
50,3,animal,0,0,animals,2,a_031.jpg,31,tbd,411.092773613526,416.008436584866,4.86017056694342,animal,0.605728412895132,0,2,1
51,3,tool,0,0,animals,2,t_314.jpg,314,tbd,418.558101221477,425.123452820611,6.52421919443365,tool,0.665299355594925,0,1,1
52,3,tool,0,0,animals,2,t_260.jpg,260,tbd,427.689802876355,432.188753101705,4.45148936067926,tool,0.669243788421682,0,1,1
53,3,tool,0,0,animals,2,t_291.jpg,291,tbd,434.755235942877,440.270824118174,5.469964448273,tool,0.711588227406537,0,1,1
54,3,animal,0,0,animals,2,a_174.jpg,174,tbd,442.820429739039,449.719149097359,6.83481890139885,animal,0.713687776705683,0,2,1
55,3,animal,0,0,animals,2,a_150.jpg,150,tbd,452.285465154901,458.184314091271,5.84642881615402,animal,0.841105978957785,0,2,1
56,3,animal,0,0,animals,2,a_071.jpg,71,tbd,460.734008235755,464.933196320219,4.1568573360503,animal,0.667352397920695,0,2,1
57,3,tool,0,0,animals,2,t_187.jpg,187,tbd,467.49946843669,475.247989514934,7.68697887209455,tool,0.627986971140672,0,1,1
58,3,tool,0,0,animals,2,t_258.jpg,258,tbd,477.797640359821,481.913356124594,4.07166664972691,tool,0.677892161062118,0,1,1
59,3,tool,0,0,animals,2,t_212.jpg,212,tbd,484.4630954931,490.128663846805,5.60841948280547,tool,0.628079664350025,0,1,1
60,3,animal,0,0,animals,2,a_165.jpg,165,tbd,492.678356066861,499.143769953267,6.41277316031447,animal,0.834408012563017,0,2,1
