trial,phase,object,toShock,seenBefore,shockedCategory,responseSide,filename,num,name,onsetFixationCross,onsetStimulus,interTrialTime,response,reactionTime,wasShocked,buttonPressed,isResponseCorrect
1,2,animal,1,0,animals,1,a_138.jpg,138,tbd,0.0283244474121602,8.97627369851716,8.83050726779887,0,0.704894256051375,1,2,0
2,2,tool,0,0,animals,1,t_297.jpg,297,tbd,13.7588913328505,20.5575568282015,6.74663501243867,0,1.25502076906787,0,2,1
3,2,tool,0,0,animals,1,t_191.jpg,191,tbd,25.1234858417142,31.3888286520578,6.19667192477414,0,0.685147384718675,0,2,1
4,2,animal,0,0,animals,1,a_057.jpg,57,tbd,35.9547374594099,44.7029494547487,8.68330616473382,1,0.599359403792278,0,1,0
5,2,animal,1,0,animals,1,a_113.jpg,113,tbd,49.2688303583554,58.6169350365308,9.28420806717856,0,1.28283823751826,1,2,0
6,2,animal,1,0,animals,1,a_158.jpg,158,tbd,63.366110833656,72.8475373629335,9.41925486436317,0,1.12374807923334,1,2,0
7,2,tool,0,0,animals,1,t_347.jpg,347,tbd,77.5967115563949,87.5446861453838,9.87999113165217,0,0.918243407922091,0,2,1
8,2,animal,1,0,animals,1,a_169.jpg,169,tbd,92.1105933490726,98.7925422877843,6.62858119490734,0,1.19448792299136,1,2,0
9,2,animal,1,0,animals,1,a_036.jpg,36,tbd,103.541730914218,110.273500868042,6.68695128925867,1,0.783946529388686,1,1,1
10,2,animal,0,0,animals,1,a_125.jpg,125,tbd,115.039493643217,122.671283193809,7.5692191159359,1,0.816476523510119,0,1,0
11,2,tool,0,0,animals,1,t_334.jpg,334,tbd,127.220505561323,136.185181023122,8.91206874101398,0,0.561079634424459,0,2,1
12,2,animal,1,0,animals,1,a_085.jpg,85,tbd,140.734556700871,147.84973213685,7.0526001388225,1,1.04582253989747,1,1,1
13,2,tool,0,0,animals,1,t_296.jpg,296,tbd,152.59892621574,160.163995024131,7.52049955822026,0,0.60393337293317,0,2,1
14,2,tool,0,0,animals,1,t_270.jpg,270,tbd,164.729929810833,173.144885127956,8.35312209529975,0,0.562466482651871,0,2,1
15,2,tool,0,0,animals,1,t_344.jpg,344,tbd,177.694107174737,184.292747075618,6.53622320253687,0,0.624947779925606,0,2,1
16,2,animal,0,0,animals,1,a_152.jpg,152,tbd,188.841953406496,198.623324352796,9.7245669026458,1,0.910820690873152,0,1,0
17,2,tool,0,0,animals,1,t_231.jpg,231,tbd,203.172519137298,211.504147455558,8.28290691481202,0,0.564357843427388,0,2,1
18,2,animal,1,0,animals,1,a_055.jpg,55,tbd,216.07005626291,225.034857131197,8.90599110084618,0,1.02119924848057,1,2,0
19,2,tool,0,0,animals,1,t_345.jpg,345,tbd,229.800749837768,236.549349278218,6.68383368544456,0,0.695984942904033,0,2,1
20,2,tool,0,0,animals,1,t_265.jpg,265,tbd,241.098540855392,250.530016152078,9.3714053555799,0,0.667751484131713,0,2,1
21,2,animal,0,0,animals,1,a_101.jpg,101,tbd,255.079198428003,264.360677942324,9.22563578823694,1,1.33361663976257,0,1,0
22,2,tool,0,0,animals,1,t_193.jpg,193,tbd,268.909868878033,276.524851714022,7.56768996212371,0,0.560725866248504,0,2,1
23,2,tool,0,0,animals,1,t_305.jpg,305,tbd,281.074199808758,290.638923829489,9.50945002337726,0,0.660168079996765,0,2,1
24,2,animal,1,0,animals,1,a_121.jpg,121,tbd,295.188107709078,304.836193047071,9.58502662392853,1,1.10729705720269,1,1,1
25,2,tool,0,0,animals,1,t_317.jpg,317,tbd,309.585403483328,319.250106945092,9.60189876505252,0,0.647061658639359,0,2,1
26,2,tool,0,0,animals,1,t_343.jpg,343,tbd,323.799299163732,330.931135701666,7.06297770348182,0,0.573156824523721,0,2,1
27,2,animal,1,0,animals,1,a_143.jpg,143,tbd,335.480401688829,342.079050890958,6.55633412952289,1,0.989598417012985,1,1,1
28,2,animal,1,0,animals,1,a_039.jpg,39,tbd,346.828203916061,354.659946254799,7.76964314262225,1,1.2501789881162,1,1,1
29,2,tool,0,0,animals,1,t_181.jpg,181,tbd,359.425817151545,367.407522237179,7.93460331945292,0,0.715985513807937,0,2,1
30,2,animal,1,0,animals,1,a_033.jpg,33,tbd,371.973393518804,379.588537683345,7.54818965915073,1,0.679272844449315,1,1,1
31,2,animal,0,0,animals,1,a_144.jpg,144,tbd,384.354345075015,393.019153416375,8.61805092164948,0,0.907162413612241,0,2,1
32,2,animal,1,0,animals,1,a_062.jpg,62,tbd,397.585112578763,403.917170999584,6.2807242375629,1,0.997487158685544,1,1,1
33,2,tool,0,0,animals,1,t_194.jpg,194,tbd,408.666331080806,418.53087411207,9.80980440131452,0,0.583230076666496,0,2,1
34,2,animal,1,0,animals,1,a_142.jpg,142,tbd,423.096871762382,430.978576238624,7.82821375222476,1,0.948936565827353,1,1,1
35,2,tool,0,0,animals,1,t_263.jpg,263,tbd,435.744459323213,445.409146748342,9.60384235442901,0,0.578802040907703,0,2,1
36,2,tool,0,0,animals,1,t_330.jpg,330,tbd,449.958354362152,457.690156389247,7.67646077307061,0,0.759115403177475,0,2,1
37,2,animal,1,0,animals,1,a_073.jpg,73,tbd,462.239348928619,471.770688523296,9.47219120332337,1,0.876128316838731,1,1,1
38,2,tool,0,0,animals,1,t_244.jpg,244,tbd,476.519912109595,483.85166423068,7.27762190124304,0,0.700430618961491,0,2,1
39,2,tool,0,0,animals,1,t_259.jpg,259,tbd,488.41763910897,495.166286980059,6.68485875071304,0,0.647222024992971,0,2,1
40,2,animal,1,0,animals,1,a_147.jpg,147,tbd,499.715454823013,509.546772190913,9.76823010851042,0,1.36321000521411,1,2,0
41,2,tool,0,0,animals,1,t_275.jpg,275,tbd,514.312665859682,521.794376878871,7.43081245654707,0,0.650946052458949,0,2,1
42,2,animal,1,0,animals,1,a_063.jpg,63,tbd,526.343653450213,534.108768059235,7.69633325221743,1,0.768965746088725,1,1,1
43,2,animal,0,0,animals,1,a_146.jpg,146,tbd,538.874603996116,547.189599116167,8.26180198509814,0,0.978478293312946,0,2,1
44,2,animal,0,0,animals,1,a_038.jpg,38,tbd,551.738782675024,560.787032420603,8.97873929680635,0,1.42848424290469,0,2,1
45,2,tool,0,0,animals,1,t_241.jpg,241,tbd,565.336184547654,571.418232464479,6.02432179884054,0,0.868542988307127,0,2,1
46,2,animal,0,0,animals,1,a_052.jpg,52,tbd,575.96745803932,585.548847972996,9.52764742361332,1,1.26451766453602,0,1,0
47,2,animal,0,0,animals,1,a_168.jpg,168,tbd,590.11473208393,597.079963696243,6.91078773777628,1,1.07462433702676,0,1,0
48,2,tool,0,0,animals,1,t_284.jpg,284,tbd,601.629187988154,609.060939114968,7.36673409602766,0,0.638100386793212,0,2,1
49,2,tool,0,0,animals,1,t_269.jpg,269,tbd,613.610166614205,623.141611409211,9.48076924800272,0,0.544837088653367,0,2,1
50,2,animal,1,0,animals,1,a_131.jpg,131,tbd,627.690835701121,634.00630197752,6.2560727842416,1,0.865504366636742,1,1,1
51,2,tool,0,0,animals,1,t_336.jpg,336,tbd,638.755372253584,647.353645236248,8.53892607197732,0,0.539633841940486,0,2,1
52,2,animal,1,0,animals,1,a_061.jpg,61,tbd,651.90283777562,659.234663344496,7.27967978183813,0,1.15101100083257,1,2,0
53,2,tool,0,0,animals,1,t_298.jpg,298,tbd,664.000513714348,673.965185968821,9.89899606272575,0,0.678944414156376,0,2,1
54,2,animal,0,0,animals,1,a_100.jpg,100,tbd,678.514382677718,685.762899529496,7.19089128188164,1,1.08660659024463,0,1,0
55,2,tool,0,0,animals,1,t_309.jpg,309,tbd,690.32876824526,697.61058773625,7.22742540746941,0,0.853149422012848,0,2,1
56,2,animal,1,0,animals,1,a_071.jpg,71,tbd,702.176498788731,709.358252882323,7.13234959471488,1,0.90991430024178,1,1,1
57,2,tool,0,0,animals,1,t_219.jpg,219,tbd,714.107527144389,722.305824951764,8.131412383321,0,0.55374159081066,0,2,1
58,2,animal,1,0,animals,1,a_118.jpg,118,tbd,726.871706496836,734.503527158502,7.57651896372307,1,1.28650998555304,1,1,1
59,2,tool,0,0,animals,1,t_218.jpg,218,tbd,739.269346417282,745.368125997257,6.04312251643459,0,0.710379426814143,0,2,1
60,2,tool,0,0,animals,1,t_323.jpg,323,tbd,749.917215902163,756.015986501622,6.04851378975072,0,0.570698408321277,0,2,1
