trial,phase,object,toShock,seenBefore,shockedCategory,responseSide,filename,num,name,onsetFixationCross,onsetStimulus,interTrialTime,response,reactionTime,wasShocked,buttonPressed,isResponseCorrect
1,2,tool,0,0,animals,1,t_336.jpg,336,tbd,0.0285371870240851,8.94326499152794,8.79542884735775,0,2.66611595708036,0,2,1
2,2,animal,1,0,animals,1,a_024.jpg,24,tbd,13.5259576859512,22.057615869745,8.47058988567232,0,0.701154514086738,1,2,0
3,2,tool,0,0,animals,1,t_330.jpg,330,tbd,26.8235427854315,33.9553970658317,7.06481875769238,0,1.13179985281522,0,2,1
4,2,animal,1,0,animals,1,a_076.jpg,76,tbd,38.5212695209298,47.8527449506405,9.28676326074234,1,1.77896066967287,1,1,1
5,2,animal,1,0,animals,1,a_107.jpg,107,tbd,52.6186484527643,61.2002429548752,8.53276989807424,1,1.03587769361002,1,1,1
6,2,tool,0,0,animals,1,t_339.jpg,339,tbd,65.9661397215905,72.2148013798928,6.1999607970649,0,0.712705098126662,0,2,1
7,2,tool,0,0,animals,1,t_202.jpg,202,tbd,76.7640752226775,86.5287602573376,9.70973977153097,0,0.798229711073418,0,2,1
8,2,tool,0,0,animals,1,t_289.jpg,289,tbd,91.0780055548198,99.5429639508429,8.40653728856683,0,1.02743020846719,0,2,1
9,2,animal,0,0,animals,1,a_164.jpg,164,tbd,104.092246774173,113.090422761415,8.94317236233254,1,1.11949682743034,0,1,0
10,2,tool,0,0,animals,1,t_285.jpg,285,tbd,117.656300027519,126.087963054392,8.37768697907812,0,0.826452676185909,0,2,1
11,2,animal,1,0,animals,1,a_092.jpg,92,tbd,130.637192635921,139.968529508658,9.28040285903394,1,0.734309722593935,1,1,1
12,2,tool,0,0,animals,1,t_331.jpg,331,tbd,144.734549116395,151.783119429729,6.98618039792232,0,0.559125918107839,0,2,1
13,2,animal,1,0,animals,1,a_045.jpg,45,tbd,156.3489707164,165.497169908729,9.10511190251084,1,0.811555556343137,1,1,1
14,2,animal,1,0,animals,1,a_039.jpg,39,tbd,170.246374729613,178.194673734281,7.90891180670057,1,0.662636637510786,1,1,1
15,2,tool,0,0,animals,1,t_227.jpg,227,tbd,182.960654212501,189.775858980144,6.75927423896207,0,0.93170947004819,0,2,1
16,2,animal,1,0,animals,1,a_006.jpg,6,tbd,194.341819316286,203.339971248498,8.9380702336688,1,1.19108074853466,1,1,1
17,2,animal,1,0,animals,1,a_158.jpg,158,tbd,208.089182804791,214.65452829436,6.51880779032482,1,0.912839100682049,1,1,1
18,2,animal,1,0,animals,1,a_033.jpg,33,tbd,219.403727983505,226.685588470103,7.23168393120871,1,1.3802998613146,1,1,1
19,2,tool,0,0,animals,1,t_326.jpg,326,tbd,231.451461502522,238.799948328865,7.2973141718215,0,1.06725315061567,0,2,1
20,2,animal,0,0,animals,1,a_068.jpg,68,tbd,243.349214794774,253.347196417372,9.93297999728063,1,0.669490396718629,0,1,0
21,2,tool,0,0,animals,1,t_213.jpg,213,tbd,257.913114095927,267.37770076155,9.42846237213305,0,0.763475965624821,0,2,1
22,2,tool,0,0,animals,1,t_181.jpg,181,tbd,271.927142027345,278.842376591152,6.86143295542435,0,0.663194714211841,0,2,1
23,2,tool,0,0,animals,1,t_232.jpg,232,tbd,283.391626058173,290.373623273562,6.92983509180109,0,1.33836552898129,0,2,1
24,2,animal,1,0,animals,1,a_074.jpg,74,tbd,294.922768502119,302.554560399808,7.56424102466209,1,2.19597578681578,1,1,1
25,2,tool,0,0,animals,1,t_238.jpg,238,tbd,307.320434715161,313.835744138222,6.46508277216403,0,0.771057148946056,0,2,1
26,2,animal,0,0,animals,1,a_086.jpg,86,tbd,318.3849333073,327.533132499629,9.0942597279897,0,1.28109916185849,0,2,1
27,2,tool,0,0,animals,1,t_350.jpg,350,tbd,332.082384853253,341.397213239857,9.25275037643791,0,1.23360619314371,0,2,1
28,2,tool,0,0,animals,1,t_264.jpg,264,tbd,345.963090185227,353.494903924883,7.47703021425507,0,1.36640824173446,0,2,1
29,2,tool,0,0,animals,1,t_342.jpg,342,tbd,358.044171673726,367.758719610751,9.66626274169767,0,0.806924481926671,0,2,1
30,2,animal,0,0,animals,1,a_121.jpg,121,tbd,372.308133293445,380.523033556478,8.17207198614508,1,1.49408432375367,0,1,0
31,2,animal,1,0,animals,1,a_133.jpg,133,tbd,385.072372828945,394.586967336508,9.44919060657064,1,1.75671521920049,1,1,1
32,2,animal,1,0,animals,1,a_031.jpg,31,tbd,399.336356579291,407.334734628787,7.95355151170999,1,1.95231565039512,1,1,1
33,2,tool,0,0,animals,1,t_211.jpg,211,tbd,412.100600925798,418.315993515117,6.16208908977895,0,0.659464580860458,0,2,1
34,2,animal,0,0,animals,1,a_070.jpg,70,tbd,422.865264792031,431.113556323603,8.18499541377576,1,1.89239713600773,0,1,0
35,2,tool,0,0,animals,1,t_267.jpg,267,tbd,435.662810280895,441.828067055514,6.12526878411783,0,1.54522852532045,0,2,1
36,2,animal,0,0,animals,1,a_175.jpg,175,tbd,446.3941162349,455.075711667139,8.62447949644048,1,1.5790563124724,0,1,0
37,2,tool,0,0,animals,1,t_308.jpg,308,tbd,459.641614912675,469.556285626574,9.85461816790675,0,0.922947986577583,0,2,1
38,2,tool,0,0,animals,1,t_241.jpg,241,tbd,474.105501737286,482.18720769437,8.02402404889712,0,0.671373424483591,0,2,1
39,2,tool,0,0,animals,1,t_240.jpg,240,tbd,486.736505592185,494.001626343626,7.22097701813355,0,0.724447160207092,0,2,1
40,2,animal,1,0,animals,1,a_048.jpg,48,tbd,498.550881583854,506.132671092076,7.52500952823941,1,1.757764980719,1,1,1
41,2,tool,0,0,animals,1,t_190.jpg,190,tbd,510.881909910737,520.796579983168,9.8689948117764,0,1.00143473915205,0,2,1
42,2,animal,1,0,animals,1,a_020.jpg,20,tbd,525.362479700634,533.360882446627,7.93377852959349,1,1.99760517834238,1,1,1
43,2,tool,0,0,animals,1,t_294.jpg,294,tbd,538.126723726406,546.075116385324,7.89866780655581,0,1.20877498729078,0,2,1
44,2,animal,0,0,animals,1,a_151.jpg,151,tbd,550.641003914908,558.056091743031,7.37365261676522,1,1.87717382995515,0,1,0
45,2,tool,0,0,animals,1,t_287.jpg,287,tbd,562.605371038289,571.886951203601,9.23425412066596,0,0.679748744536028,0,2,1
46,2,animal,1,0,animals,1,a_163.jpg,163,tbd,576.43615929597,582.884785609415,6.40736668837168,0,1.63639901422493,1,2,0
47,2,animal,1,0,animals,1,a_025.jpg,25,tbd,587.650713487303,596.665542611594,8.966848452307,1,2.95112476603299,1,1,1
48,2,animal,1,0,animals,1,a_137.jpg,137,tbd,601.43146696141,609.596468431974,8.10736932492085,0,1.23056756172764,1,2,0
49,2,tool,0,0,animals,1,t_187.jpg,187,tbd,614.362312277623,620.810999530478,6.39202265581189,0,0.857381351097047,0,2,1
50,2,animal,0,0,animals,1,a_027.jpg,27,tbd,625.360245148694,632.441952067979,7.02704359690356,0,1.49794371280086,0,2,1
51,2,animal,0,0,animals,1,a_176.jpg,176,tbd,637.008002851034,644.85643884108,7.79772573866705,0,1.0578636704895,0,2,1
52,2,animal,1,0,animals,1,a_053.jpg,53,tbd,649.405691194704,657.270876221186,7.80381519056437,1,1.30986769505671,1,1,1
53,2,tool,0,0,animals,1,t_299.jpg,299,tbd,662.036641166335,670.651536169336,8.56296137430666,0,2.77171497383915,0,2,1
54,2,tool,0,0,animals,1,t_292.jpg,292,tbd,675.200797182771,684.198995300641,8.95591375842088,0,1.01766097959762,0,2,1
55,2,tool,0,0,animals,1,t_354.jpg,354,tbd,688.764886037563,697.996357971276,9.17964724049432,0,1.66580067581799,0,2,1
56,2,animal,0,0,animals,1,a_106.jpg,106,tbd,702.562275008363,712.376977827709,9.76081331541125,0,1.31867055317889,0,2,1
57,2,animal,1,0,animals,1,a_052.jpg,52,tbd,716.942838415659,726.62429849826,9.62905050223208,0,1.00782760398079,1,2,0
58,2,tool,0,0,animals,1,t_279.jpg,279,tbd,731.373505885015,740.038403918949,8.61064098374582,0,0.673106028126313,0,2,1
59,2,tool,0,0,animals,1,t_212.jpg,212,tbd,744.58762163333,753.286025758479,8.64907539441232,0,0.750971519453287,0,2,1
60,2,animal,1,0,animals,1,a_132.jpg,132,tbd,757.851834708297,765.017105915934,7.11371971260915,0,1.71625048884607,1,2,0
