trial,phase,object,toShock,seenBefore,shockedCategory,responseSide,filename,num,name,onsetFixationCross,onsetStimulus,interTrialTime,response,reactionTime,wasShocked,buttonPressed,isResponseCorrect
1,1,tool,0,0,animals,1,t_181.jpg,181,tbd,0.0154029843879471,6.79723947152524,6.70547900708737,tool,1.02555317026145,0,2,1
2,1,animal,0,0,animals,1,a_025.jpg,25,tbd,9.38040938950053,16.9955946053333,7.5722009554898,animal,0.621615100672898,0,1,1
3,1,tool,0,0,animals,1,t_269.jpg,269,tbd,19.5452221979285,25.7106896300011,6.11340368626758,tool,1.41513185692111,0,2,1
4,1,animal,0,0,animals,1,a_051.jpg,51,tbd,28.2770240775744,36.0254940030545,7.69471358754362,animal,0.670494735237298,0,1,1
5,1,tool,0,0,animals,1,t_204.jpg,204,tbd,38.5750933708177,44.7405672176255,6.11280246618298,tool,0.714813814389345,0,2,1
6,1,tool,0,0,animals,1,t_313.jpg,313,tbd,47.2902672967184,54.6721325860135,7.32857314595612,tool,0.651752805775686,0,2,1
7,1,tool,0,0,animals,1,t_240.jpg,240,tbd,57.2384811460024,61.8542218778339,4.57524291763448,tool,0.736980891279018,0,2,1
8,1,animal,0,0,animals,1,a_071.jpg,71,tbd,64.4205184784732,71.1525169697279,6.683373525125,animal,0.719083782335474,0,1,1
9,1,tool,0,0,animals,1,t_352.jpg,352,tbd,73.7355143313471,78.0512616703554,4.25395328121526,tool,0.838648337336053,0,2,1
10,1,tool,0,0,animals,1,t_349.jpg,349,tbd,80.6176102303434,85.8831879317004,5.21814175862386,tool,0.861993159458507,0,2,1
11,1,animal,0,0,animals,1,a_000.jpg,0,tbd,88.4328809545859,93.3985076003664,4.92314342518194,animal,0.720999863498037,0,1,1
12,1,tool,0,0,animals,1,t_184.jpg,184,tbd,95.9481816997859,101.9636668686,5.97431530663544,tool,0.72521594767386,0,2,1
13,1,animal,0,0,animals,1,a_061.jpg,61,tbd,104.513296706352,109.562278655931,4.99494606031461,animal,0.660940629840297,0,1,1
14,1,tool,0,0,animals,1,t_217.jpg,217,tbd,112.111933831883,116.4443498582,4.29144891294276,tool,0.897249181130064,0,2,1
15,1,tool,0,0,animals,1,t_334.jpg,334,tbd,118.994024278355,124.076326282768,5.03679180341303,tool,0.70552784488973,0,2,1
16,1,tool,0,0,animals,1,t_356.jpg,356,tbd,126.625939762946,133.757896301839,7.08180264648268,tool,0.730379167383035,0,2,1
17,1,animal,0,0,animals,1,a_087.jpg,87,tbd,136.307576815992,142.506354039323,6.14645347033198,animal,0.753314408715596,0,1,1
18,1,animal,0,0,animals,1,a_138.jpg,138,tbd,145.072681430688,152.671186091955,7.54592691579321,animal,0.565076914720521,0,1,1
19,1,animal,0,0,animals,1,a_147.jpg,147,tbd,155.237510917425,162.98600682258,7.70154573041879,animal,0.77461806235624,0,1,1
20,1,tool,0,0,animals,1,t_281.jpg,281,tbd,165.552334855419,172.917574115389,7.31997071521318,tool,0.648493479233366,0,2,1
21,1,animal,0,0,animals,1,a_013.jpg,13,tbd,175.483872319713,181.932569519232,6.39381834092328,animal,0.765822820035282,0,1,1
22,1,animal,0,0,animals,1,a_083.jpg,83,tbd,184.498909419329,189.764490328052,5.2209471640597,animal,0.538300851174427,0,1,1
23,1,animal,0,0,animals,1,a_036.jpg,36,tbd,192.314166993366,196.69661506128,4.33205813016329,animal,0.604494816064289,0,1,1
24,1,tool,0,0,animals,1,t_223.jpg,223,tbd,199.246234956194,204.361917313942,5.065789762369,tool,0.654462068844623,0,2,1
25,1,animal,0,0,animals,1,a_115.jpg,115,tbd,206.911513153602,212.093847488276,5.13374218821316,animal,0.636978389532487,0,1,1
26,1,animal,0,0,animals,1,a_068.jpg,68,tbd,214.660113939663,221.591977593202,6.88023607741959,animal,0.717237301041678,0,1,1
27,1,tool,0,0,animals,1,t_266.jpg,266,tbd,224.158413393578,230.290563336711,6.07773775556986,tool,0.692937324968625,0,2,1
28,1,animal,0,0,animals,1,a_125.jpg,125,tbd,232.840213380876,239.172278841957,6.28243054106909,animal,0.638864642180124,0,1,1
29,1,tool,0,0,animals,1,t_228.jpg,228,tbd,241.721923433599,248.437098642446,6.67666694894628,tool,0.818212597258935,0,2,1
30,1,tool,0,0,animals,1,t_293.jpg,293,tbd,251.003588647328,256.9356229328,5.89726913332441,tool,0.766149650752595,0,2,1
31,1,tool,0,0,animals,1,t_213.jpg,213,tbd,259.502068355278,266.300689636416,6.76150487543088,tool,0.574376355163622,0,2,1
32,1,animal,0,0,animals,1,a_171.jpg,171,tbd,268.850385545932,276.265542023756,7.3730689020441,animal,0.642055010327567,0,1,1
33,1,animal,0,0,animals,1,a_050.jpg,50,tbd,278.81526455442,283.997566173948,5.12794585173026,animal,1.1873975603512,0,1,1
34,1,animal,0,0,animals,1,a_001.jpg,1,tbd,286.547203067908,291.046267158161,4.45243576248771,animal,0.549972139656347,0,1,1
35,1,tool,0,0,animals,1,t_303.jpg,303,tbd,293.612595832472,299.444684386597,5.79539749127867,tool,0.566848343622951,0,2,1
36,1,tool,0,0,animals,1,t_321.jpg,321,tbd,301.99443738725,307.326687271945,5.2856278386075,tool,0.848288079438134,0,2,1
37,1,animal,0,0,animals,1,a_126.jpg,126,tbd,309.892972967536,316.158416921681,6.21244168433069,animal,0.570926831746874,0,1,1
38,1,tool,0,0,animals,1,t_185.jpg,185,tbd,318.708084606366,325.506736357493,6.75530610719246,tool,0.739960856139078,0,2,1
39,1,tool,0,0,animals,1,t_183.jpg,183,tbd,328.056403079968,335.804882627549,7.68877482273466,tool,0.592330875980224,0,2,1
40,1,animal,0,0,animals,1,a_142.jpg,142,tbd,338.354523691087,345.453162420302,7.04155668179877,animal,0.632472680098545,0,1,1
41,1,animal,0,0,animals,1,a_150.jpg,150,tbd,348.019481151775,353.701655438826,5.63176265249726,animal,0.632337649939473,0,1,1
42,1,animal,0,0,animals,1,a_079.jpg,79,tbd,356.267920928004,364.149637395461,7.83782962526023,animal,0.547931612648426,0,1,1
43,1,tool,0,0,animals,1,t_354.jpg,354,tbd,366.716106873192,373.581562951185,6.82126884929914,tool,0.648294301729948,0,2,1
44,1,tool,0,0,animals,1,t_243.jpg,243,tbd,376.14772804977,383.846217572263,7.64471780594098,tool,0.702111357354624,0,2,1
45,1,animal,0,0,animals,1,a_152.jpg,152,tbd,386.412561641938,393.311204348289,6.8537997429247,animal,0.67654382976616,0,1,1
46,1,tool,0,0,animals,1,t_275.jpg,275,tbd,395.860854071718,403.775977513658,7.87069382813804,tool,0.554093927238682,0,2,1
47,1,tool,0,0,animals,1,t_320.jpg,320,tbd,406.325638462873,410.808066580963,4.42820307514829,tool,0.893443319217113,0,2,1
48,1,animal,0,0,animals,1,a_130.jpg,130,tbd,413.357682947772,420.522820021024,7.10948202493746,animal,0.537103220263816,0,1,1
49,1,animal,0,0,animals,1,a_112.jpg,112,tbd,423.089298800121,429.254730630418,6.11529087838076,animal,0.784580465597173,0,1,1
50,1,animal,0,0,animals,1,a_063.jpg,63,tbd,431.821034928739,437.486597940354,5.6155657792357,animal,0.511101735894044,0,1,1
51,1,tool,0,0,animals,1,t_222.jpg,222,tbd,440.052911219304,445.868427627873,5.76708035002277,tool,0.686598925920407,0,2,1
52,1,animal,0,0,animals,1,a_052.jpg,52,tbd,448.434742189769,455.750009385908,7.27446627431141,animal,0.581395678268564,0,1,1
53,1,animal,0,0,animals,1,a_085.jpg,85,tbd,458.299612281776,463.848524631487,5.49344925935143,animal,0.617229988244617,0,1,1
54,1,tool,0,0,animals,1,t_309.jpg,309,tbd,466.398167619444,471.613780954651,5.1531781232707,tool,0.664385342206515,0,2,1
55,1,tool,0,0,animals,1,t_318.jpg,318,tbd,474.180116364433,480.278890444544,6.0487642036756,tool,0.543652664074216,0,2,1
56,1,tool,0,0,animals,1,t_246.jpg,246,tbd,482.845221364013,488.144132911882,5.24168987118315,tool,0.69968498407161,0,2,1
57,1,animal,0,0,animals,1,a_017.jpg,17,tbd,490.710486603658,496.809079146786,6.06120810813962,animal,0.633111266906781,0,1,1
58,1,animal,0,0,animals,1,a_008.jpg,8,tbd,499.375572038298,505.391034755541,5.96415148340506,animal,0.649566343558945,0,1,1
59,1,animal,0,0,animals,1,a_151.jpg,151,tbd,507.940656254138,512.356454846874,4.35129053788134,animal,0.527506777619237,0,1,1
60,1,tool,0,0,animals,1,t_198.jpg,198,tbd,514.906093985991,522.804549061361,7.83950454677273,tool,0.655453145307547,0,2,1
