trial,phase,object,toShock,seenBefore,shockedCategory,responseSide,filename,num,name,onsetFixationCross,onsetStimulus,interTrialTime,response,reactionTime,wasShocked,buttonPressed,isResponseCorrect
1,1,animal,0,0,animals,1,a_048.jpg,48,tbd,0.03913525890448,6.97085789912899,6.73951584387419,animal,1.09962737752267,0,1,1
2,1,tool,0,0,animals,1,t_303.jpg,303,tbd,9.57054980427847,15.3194839327271,5.69345035383178,tool,0.878315463078707,0,2,1
3,1,animal,0,0,animals,1,a_006.jpg,6,tbd,17.8690368167304,24.3343463179895,6.40946334227626,animal,0.845691278178037,0,1,1
4,1,tool,0,0,animals,1,t_257.jpg,257,tbd,26.9006090017247,31.7995310546253,4.84684307775296,tool,0.999724270563092,0,2,1
5,1,tool,0,0,animals,1,t_255.jpg,255,tbd,34.3658068883592,40.081280684421,5.675967730378,tool,1.13122618324587,0,2,1
6,1,animal,0,0,animals,1,a_166.jpg,166,tbd,42.6308460769596,48.0630384287279,5.38147625154123,animal,1.0376167940185,0,1,1
7,1,tool,0,0,animals,1,t_351.jpg,351,tbd,50.612604141998,57.3112228468772,6.63550422278638,tool,0.635752829794455,0,2,1
8,1,tool,0,0,animals,1,t_205.jpg,205,tbd,59.8774829647591,64.342973037953,4.41468446774986,tool,0.831210242881752,0,2,1
9,1,tool,0,0,animals,1,t_232.jpg,232,tbd,66.9094371411825,72.7415142219852,5.77126964153908,tool,0.709900541486149,0,2,1
10,1,animal,0,0,animals,1,a_069.jpg,69,tbd,75.2911277242761,82.4396107756916,7.09089088440678,animal,0.862004012091347,0,1,1
11,1,animal,0,0,animals,1,a_169.jpg,169,tbd,84.9892399938344,89.3049384303636,4.26331539276493,animal,1.0229407538618,0,1,1
12,1,tool,0,0,animals,1,t_187.jpg,187,tbd,91.8712065665372,99.3363159312285,7.40492354739403,tool,0.664851852814081,0,2,1
13,1,animal,0,0,animals,1,a_062.jpg,62,tbd,101.902593689353,107.667903415124,5.7272097617547,animal,0.81449370778455,0,1,1
14,1,animal,0,0,animals,1,a_036.jpg,36,tbd,110.234287656165,114.550140364632,4.24958435112843,animal,1.41139428513361,0,1,1
15,1,animal,0,0,animals,1,a_026.jpg,26,tbd,117.099580671816,124.348129441153,7.1877557196197,animal,1.12066480979593,0,1,1
16,1,tool,0,0,animals,1,t_209.jpg,209,tbd,126.897700927593,134.762718755464,7.81100030317525,tool,0.767444615631575,0,2,1
17,1,tool,0,0,animals,1,t_190.jpg,190,tbd,137.329007739196,141.844668265241,4.47463378125779,tool,0.822688402176937,0,2,1
18,1,animal,0,0,animals,1,a_064.jpg,64,tbd,144.394300369969,151.226142675183,6.77558531707234,animal,0.808392108328007,0,1,1
19,1,tool,0,0,animals,1,t_349.jpg,349,tbd,153.775763875034,161.607473076601,7.77402578693012,tool,1.22844604898137,0,2,1
20,1,tool,0,0,animals,1,t_251.jpg,251,tbd,164.173722289606,168.389457963083,4.17133971349364,tool,1.10764695241824,0,2,1
21,1,animal,0,0,animals,1,a_104.jpg,104,tbd,170.955758172425,176.287967234313,5.28426207218332,animal,1.02636937550778,0,1,1
22,1,tool,0,0,animals,1,t_336.jpg,336,tbd,178.837533909779,185.869258763052,6.98961430865736,tool,0.777481913518386,0,2,1
23,1,animal,0,0,animals,1,a_044.jpg,44,tbd,188.418955976311,193.984501824744,5.50025763738091,animal,1.03233113595252,0,1,1
24,1,animal,0,0,animals,1,a_164.jpg,164,tbd,196.550745264578,203.88250594358,7.281465453434,animal,0.953600489303426,0,1,1
25,1,tool,0,0,animals,1,t_211.jpg,211,tbd,206.448792040728,211.997585111384,5.48883262024292,tool,0.625746963612073,0,2,1
26,1,tool,0,0,animals,1,t_218.jpg,218,tbd,214.547195406358,220.112704691379,5.52283195655673,tool,1.19279383630192,0,2,1
27,1,animal,0,0,animals,1,a_074.jpg,74,tbd,222.662309854646,226.761259426325,4.04228959727278,animal,0.899488564852163,0,1,1
28,1,tool,0,0,animals,1,t_288.jpg,288,tbd,229.32764815761,236.459494856848,7.08394382591153,tool,1.04969170026061,0,2,1
29,1,animal,0,0,animals,1,a_110.jpg,110,tbd,239.025765558875,243.274855402554,4.17947795920801,animal,1.01936235052199,0,1,1
30,1,animal,0,0,animals,1,a_032.jpg,32,tbd,245.841099804583,250.173435555485,4.27277014457303,animal,0.953971575855576,0,1,1
31,1,tool,0,0,animals,1,t_357.jpg,357,tbd,252.723098771186,257.422057772376,4.64505279580288,tool,1.37055840706171,0,2,1
32,1,animal,0,0,animals,1,a_091.jpg,91,tbd,259.971634711255,267.436614179617,7.41537470944878,animal,0.849275454688268,0,1,1
33,1,tool,0,0,animals,1,t_346.jpg,346,tbd,270.003015098705,277.134829404044,7.07119939427581,tool,0.982339651378879,0,2,1
34,1,animal,0,0,animals,1,a_047.jpg,47,tbd,279.701122236557,284.366783516321,4.61121160456721,animal,0.74260041906291,0,1,1
35,1,tool,0,0,animals,1,t_248.jpg,248,tbd,286.916339607641,292.398523443983,5.42076123974237,tool,0.597178751521369,0,2,1
36,1,tool,0,0,animals,1,t_279.jpg,279,tbd,294.964810182594,300.413639848735,5.38931229775212,tool,0.730177198217461,0,2,1
37,1,animal,0,0,animals,1,a_144.jpg,144,tbd,302.979879760521,309.178575280637,6.15137316381762,animal,0.827494566383393,0,1,1
38,1,tool,0,0,animals,1,t_296.jpg,296,tbd,311.728186537806,319.2264496154,7.43777849661919,tool,0.990891961592752,0,2,1
39,1,tool,0,0,animals,1,t_195.jpg,195,tbd,321.77623310548,327.774972950714,5.94538846968824,tool,0.855618244367179,0,2,1
40,1,tool,0,0,animals,1,t_180.jpg,180,tbd,330.324551493251,338.189562265025,7.81476057022441,tool,0.73723169149207,0,2,1
41,1,animal,0,0,animals,1,a_162.jpg,162,tbd,340.739178974633,348.004335551027,7.21571630912591,animal,0.773864380913892,0,1,1
42,1,animal,0,0,animals,1,a_075.jpg,75,tbd,350.553935261855,357.119288992013,6.51649634137078,animal,1.13412752201248,0,1,1
43,1,animal,0,0,animals,1,a_085.jpg,85,tbd,359.685457380634,365.484281963178,5.73691266098612,animal,0.84523070748719,0,1,1
44,1,tool,0,0,animals,1,t_225.jpg,225,tbd,368.033843827668,373.965890406888,5.87457114785338,tool,1.06601213173508,0,2,1
45,1,animal,0,0,animals,1,a_096.jpg,96,tbd,376.532185163791,384.480544476925,7.89882514766353,animal,0.912712331967668,0,1,1
46,1,animal,0,0,animals,1,a_016.jpg,16,tbd,387.030138414584,394.478554978322,7.38345483748497,animal,0.859835865943296,0,1,1
47,1,animal,0,0,animals,1,a_143.jpg,143,tbd,397.028164631832,403.64341170267,6.55190281376314,animal,1.06130507361695,0,1,1
48,1,tool,0,0,animals,1,t_327.jpg,327,tbd,406.193043807398,413.858089282339,7.60069630148433,tool,0.734108727135663,0,2,1
49,1,tool,0,0,animals,1,t_338.jpg,338,tbd,416.424367040463,421.40665591643,4.92547538626756,tool,0.776495342874568,0,2,1
50,1,tool,0,0,animals,1,t_182.jpg,182,tbd,423.956211687018,428.605206465827,4.59785417778549,tool,0.887227634236297,0,2,1
51,1,animal,0,0,animals,1,a_021.jpg,21,tbd,431.154813874216,436.953584894569,5.74561525441556,animal,0.822126480275983,0,1,1
52,1,tool,0,0,animals,1,t_256.jpg,256,tbd,439.503235281003,445.501948826239,5.94658108220879,tool,0.780945815649375,0,2,1
53,1,animal,0,0,animals,1,a_109.jpg,109,tbd,448.051536669996,452.550550580449,4.44383028909682,animal,0.852479564158784,0,1,1
54,1,animal,0,0,animals,1,a_125.jpg,125,tbd,455.116797869064,459.432499192178,4.25993800556136,animal,0.950751109069188,0,1,1
55,1,animal,0,0,animals,1,a_049.jpg,49,tbd,461.998770535669,469.963804688782,7.90498420217401,animal,0.854720837130117,0,1,1
56,1,tool,0,0,animals,1,t_341.jpg,341,tbd,472.513448881507,478.028843300065,5.4595383445204,tool,0.757975654279562,0,2,1
57,1,animal,0,0,animals,1,a_095.jpg,95,tbd,480.595149603308,485.39409798828,4.7517121698552,animal,0.712916702193525,0,1,1
58,1,tool,0,0,animals,1,t_191.jpg,191,tbd,487.960374142745,494.692325849535,6.68582693796046,tool,1.06196610160714,0,2,1
59,1,tool,0,0,animals,1,t_247.jpg,247,tbd,497.241892845732,505.273406016097,7.97647348789192,tool,0.992123571239517,0,2,1
60,1,animal,0,0,animals,1,a_117.jpg,117,tbd,507.839817519332,513.022036090915,5.13655519603891,animal,0.855635243146025,0,1,1
