trial,phase,object,toShock,seenBefore,shockedCategory,responseSide,filename,num,name,onsetFixationCross,onsetStimulus,interTrialTime,response,reactionTime,wasShocked,buttonPressed,isResponseCorrect
1,3,animal,0,0,tools,1,a_167.jpg,167,tbd,0.0154757675936708,8.06388520212749,7.96640721364052,animal,0.903799611181967,0,1,1
2,3,tool,0,0,tools,1,t_345.jpg,345,tbd,10.6302311962227,17.3456052618367,6.65436133169947,tool,1.16545213656536,0,2,1
3,3,tool,0,0,tools,1,t_216.jpg,216,tbd,19.9119066735275,26.1605347222103,6.20234216849314,tool,0.950927061046968,0,2,1
4,3,animal,0,0,tools,1,a_103.jpg,103,tbd,28.7269509576454,34.2091609747658,5.43500017375361,animal,1.34066547459588,0,1,1
5,3,tool,0,0,tools,1,t_260.jpg,260,tbd,36.7755393632706,41.6577446334868,4.83332588417142,tool,1.8253615220292,0,2,1
6,3,animal,0,0,tools,1,a_050.jpg,50,tbd,44.2075143124493,50.6396011987435,6.38243203790414,animal,1.14394032479504,0,1,1
7,3,tool,0,0,tools,1,t_214.jpg,214,tbd,53.2058901017026,59.7713030726791,6.50294802306277,tool,0.745613864850384,0,2,1
8,3,tool,0,0,tools,1,t_318.jpg,318,tbd,62.337592617112,67.1365692745349,4.74265133904104,tool,1.66063916135499,0,2,1
9,3,animal,0,0,tools,1,a_023.jpg,23,tbd,69.6862459398471,77.0681773009073,7.33147130908656,animal,0.874484916499569,0,1,1
10,3,tool,0,0,tools,1,t_317.jpg,317,tbd,79.6344591476573,86.9997609512884,7.30787008540723,tool,1.64840337624628,0,2,1
11,3,animal,0,0,tools,1,a_147.jpg,147,tbd,89.5493510176875,94.7816686419774,5.18330537184375,animal,0.943977979286501,0,1,1
12,3,tool,0,0,tools,1,t_338.jpg,338,tbd,97.331312271408,102.246957872729,4.86764276624484,tool,1.0008378641669,0,2,1
13,3,tool,0,0,tools,1,t_330.jpg,330,tbd,104.813271793151,108.879162020368,4.01336742066644,tool,1.19393997198495,0,2,1
14,3,animal,0,0,tools,1,a_140.jpg,140,tbd,111.428757218555,115.910968197886,4.43277304380418,animal,0.985356544193564,0,1,1
15,3,animal,0,0,tools,1,a_172.jpg,172,tbd,118.477444731825,124.359655133831,5.83685470872551,animal,0.768102640668076,0,1,1
16,3,tool,0,0,tools,1,t_262.jpg,262,tbd,126.925954300365,132.108243411159,5.13156859430369,tool,1.08174562605927,0,2,1
17,3,animal,0,0,tools,1,a_174.jpg,174,tbd,134.657913661738,141.056659324577,6.33957387199174,animal,0.796831349362037,0,1,1
18,3,animal,0,0,tools,1,a_107.jpg,107,tbd,143.622967471738,149.521770867184,5.85530942263505,animal,0.893102720852767,0,1,1
19,3,tool,0,0,tools,1,t_229.jpg,229,tbd,152.071439193343,158.670137258852,6.55114998674197,tool,1.2581347849009,0,2,1
20,3,animal,0,0,tools,1,a_019.jpg,19,tbd,161.219769341762,168.318233590202,7.04971992929286,animal,1.82542438642486,0,1,1
21,3,animal,0,0,tools,1,a_017.jpg,17,tbd,170.868075114187,177.716731323555,6.79851009284161,animal,0.940397916023358,0,1,1
22,3,animal,0,0,tools,1,a_003.jpg,3,tbd,180.266360199097,186.498459722417,6.17764556401634,animal,0.710024918464114,0,1,1
23,3,tool,0,0,tools,1,t_305.jpg,305,tbd,189.048119067947,196.696589378313,7.59667291867331,tool,1.03228225066414,0,2,1
24,3,animal,0,0,tools,1,a_127.jpg,127,tbd,199.262926712516,204.011996736397,4.70118094793102,animal,1.09926426567472,0,1,1
25,3,tool,0,0,tools,1,t_184.jpg,184,tbd,206.578270564731,214.510087711444,7.88039828282971,tool,0.805552501500642,0,2,1
26,3,tool,0,0,tools,1,t_304.jpg,304,tbd,217.059707927094,223.641780925489,6.52538910108147,tool,1.97039193107594,0,2,1
27,3,tool,0,0,tools,1,t_261.jpg,261,tbd,226.191436101441,232.77349113858,6.53142861666686,tool,1.12698393664868,0,2,1
28,3,animal,0,0,tools,1,a_092.jpg,92,tbd,235.339786777009,241.605235221468,6.20162932450878,animal,0.968606069021916,0,1,1
29,3,animal,0,0,tools,1,a_098.jpg,98,tbd,244.171534067265,251.186830963625,6.95355371815416,animal,1.26952125917705,0,1,1
30,3,tool,0,0,tools,1,t_320.jpg,320,tbd,253.753152260992,260.951588541189,7.1553956363079,tool,0.847156544323298,0,2,1
31,3,animal,0,0,tools,1,a_033.jpg,33,tbd,263.501402481819,269.950142980795,6.40065508408913,animal,0.715944435356505,0,1,1
32,3,animal,0,0,tools,1,a_113.jpg,113,tbd,272.51642835565,277.298822924678,4.71770787116706,animal,1.16458935479204,0,1,1
33,3,tool,0,0,tools,1,t_195.jpg,195,tbd,279.865115355742,287.513617419041,7.60457142695854,tool,1.61033064470394,0,2,1
34,3,tool,0,0,tools,1,t_346.jpg,346,tbd,290.063272594994,296.712040549033,6.5786971819458,tool,1.09927003893608,0,2,1
35,3,tool,0,0,tools,1,t_291.jpg,291,tbd,299.278287435482,305.576866058636,6.24179565250319,tool,1.40287300279851,0,2,1
36,3,animal,0,0,tools,1,a_000.jpg,0,tbd,308.143359270885,315.541935905472,7.35737952604577,animal,1.25320794815343,0,1,1
37,3,animal,0,0,tools,1,a_012.jpg,12,tbd,318.108203319071,322.174104130598,4.02290320683319,animal,1.83661938087971,0,1,1
38,3,tool,0,0,tools,1,t_187.jpg,187,tbd,324.74037892114,329.772644072904,4.97637776708905,tool,0.83513212471189,0,2,1
39,3,animal,0,0,tools,1,a_130.jpg,130,tbd,332.339002254994,338.537685823203,6.14736919962166,animal,0.649343776305614,0,1,1
40,3,tool,0,0,tools,1,t_327.jpg,327,tbd,341.104093398748,348.719263219218,7.56679096365209,tool,0.971325595666713,0,2,1
41,3,tool,0,0,tools,1,t_274.jpg,274,tbd,351.268928979483,356.801133512006,5.48451190612369,tool,0.762820748372178,0,2,1
42,3,animal,0,0,tools,1,a_156.jpg,156,tbd,359.350793178273,364.383102270966,4.97063103642043,animal,0.677103860109128,0,1,1
43,3,tool,0,0,tools,1,t_332.jpg,332,tbd,366.932777653332,371.331903389182,4.34343581063932,tool,1.28770510674985,0,2,1
44,3,tool,0,0,tools,1,t_344.jpg,344,tbd,373.881540924616,380.163523346961,6.23375264592747,tool,0.984464575378297,0,2,1
45,3,animal,0,0,tools,1,a_128.jpg,128,tbd,382.729916810091,389.311940094292,6.52103784493353,animal,0.940381558451918,0,1,1
46,3,tool,0,0,tools,1,t_337.jpg,337,tbd,391.861615476659,399.62674607103,7.71581959669071,tool,0.807999401931738,0,2,1
47,3,tool,0,0,tools,1,t_314.jpg,314,tbd,402.176440376861,406.892152498978,4.65378106737575,tool,1.52505861827012,0,2,1
48,3,animal,0,0,tools,1,a_101.jpg,101,tbd,409.458455193615,415.623905947379,6.11991596108863,animal,0.924566672289075,0,1,1
49,3,animal,0,0,tools,1,a_168.jpg,168,tbd,418.173536105867,422.222693177695,4.00268611697283,animal,0.707118081574663,0,1,1
50,3,animal,0,0,tools,1,a_145.jpg,145,tbd,424.772367277115,432.22096408604,7.39033293738332,animal,0.781221734703649,0,1,1
51,3,tool,0,0,tools,1,t_203.jpg,203,tbd,434.770563453805,439.969489178236,5.14020340719783,tool,0.74303963193961,0,2,1
52,3,tool,0,0,tools,1,t_336.jpg,336,tbd,442.51916969239,449.734407765634,7.16369501076463,tool,0.845547087465093,0,2,1
53,3,tool,0,0,tools,1,t_207.jpg,207,tbd,452.284047225488,456.483215106144,4.13720128919386,tool,0.966180016477665,0,2,1
54,3,animal,0,0,tools,1,a_027.jpg,27,tbd,459.049517159308,466.648069610346,7.53432523672623,animal,0.820758629368356,0,1,1
55,3,animal,0,0,tools,1,a_154.jpg,154,tbd,469.197729276613,475.629838614477,6.36617760353505,animal,0.70324646863628,0,1,1
56,3,tool,0,0,tools,1,t_218.jpg,218,tbd,478.196091274187,484.794764642967,6.55509507199514,tool,0.639732259036464,0,2,1
57,3,animal,0,0,tools,1,a_146.jpg,146,tbd,487.344443874175,491.476904611189,4.0783645594648,animal,0.625948919256189,0,1,1
58,3,tool,0,0,tools,1,t_253.jpg,253,tbd,494.026591860815,500.741952134749,6.65773181804388,tool,1.1722594526982,0,2,1
59,3,animal,0,0,tools,1,a_094.jpg,94,tbd,503.291566256403,509.240349092626,5.88654166467701,animal,0.699285049413447,0,1,1
60,3,animal,0,0,tools,1,a_043.jpg,43,tbd,511.806658201998,516.922310089758,5.07505128443057,animal,0.821594148521399,0,1,1
