trial,phase,object,toShock,seenBefore,shockedCategory,responseSide,filename,num,name,onsetFixationCross,onsetStimulus,interTrialTime,response,reactionTime,wasShocked,buttonPressed,isResponseCorrect
1,1,animal,0,0,animals,2,a_042.jpg,42,tbd,0.0397194872518867,4.62192793079703,4.42437445009683,,2.50517298871159,0,,0
2,1,tool,0,0,animals,2,t_267.jpg,267,tbd,7.17163364250132,12.4372824318475,5.20012477465857,,2.5010653649274,0,,0
3,1,tool,0,0,animals,2,t_358.jpg,358,tbd,14.9535681161676,21.4355594557433,6.4247785213843,tool,1.22335670504776,0,1,1
4,1,tool,0,0,animals,2,t_330.jpg,330,tbd,24.0018614813948,30.4338210844687,6.36750845568193,tool,0.895223411100687,0,1,1
5,1,animal,0,0,animals,2,a_092.jpg,92,tbd,32.983435708084,40.4484968509637,7.41011034563454,animal,0.988136789856071,0,2,1
6,1,animal,0,0,animals,2,a_061.jpg,61,tbd,42.9981999968063,51.0465475658609,7.98951759077916,animal,1.13937926025483,0,2,1
7,1,tool,0,0,animals,2,t_327.jpg,327,tbd,53.5961387759887,59.9114648921945,6.25349857248823,tool,0.666682754541625,0,1,1
8,1,tool,0,0,animals,2,t_274.jpg,274,tbd,62.477779105689,66.893471145841,4.36196058798256,tool,1.01500649315585,0,1,1
9,1,tool,0,0,animals,2,t_242.jpg,242,tbd,69.4597629080458,77.3581599180472,7.83762842299818,tool,0.858795873118652,0,1,1
10,1,animal,0,0,animals,2,a_152.jpg,152,tbd,79.9077546562348,86.1397980346919,6.18546017329558,animal,0.876274843476949,0,2,1
11,1,animal,0,0,animals,2,a_010.jpg,10,tbd,88.7060298198805,95.2713734962024,6.50831289255101,animal,0.769130233758688,0,2,1
12,1,animal,0,0,animals,2,a_052.jpg,52,tbd,97.8376309400076,103.953014531515,6.0664511773987,animal,0.841613259782207,0,2,1
13,1,tool,0,0,animals,2,t_206.jpg,206,tbd,106.502583290353,112.018102744235,5.47093798853068,tool,0.781967239641972,0,1,1
14,1,animal,0,0,animals,2,a_018.jpg,18,tbd,114.567749761854,120.966358936541,6.35904315763019,animal,0.825760404250559,0,2,1
15,1,animal,0,0,animals,2,a_000.jpg,0,tbd,123.516036423767,127.815072525761,4.25505150024111,animal,0.91923282011544,0,2,1
16,1,animal,0,0,animals,2,a_050.jpg,50,tbd,130.381321630516,135.546913040781,5.1184340435821,animal,0.711711702271941,0,2,1
17,1,tool,0,0,animals,2,t_188.jpg,188,tbd,138.096555888875,144.178590334926,6.02419448654598,tool,0.96829754750388,0,1,1
18,1,tool,0,0,animals,2,t_233.jpg,233,tbd,146.761559556453,154.310002543488,7.48470414502688,tool,0.829204752796159,0,1,1
19,1,tool,0,0,animals,2,t_259.jpg,259,tbd,156.876247799451,164.291395235465,7.3673708131078,tool,0.707283025047218,0,1,1
20,1,animal,0,0,animals,2,a_074.jpg,74,tbd,166.841017235933,172.673107248926,5.76745415055676,animal,0.653681854244951,0,2,1
21,1,tool,0,0,animals,2,t_230.jpg,230,tbd,175.222651311346,183.254461260538,7.99045258011596,tool,0.593576224134722,0,1,1
22,1,tool,0,0,animals,2,t_349.jpg,349,tbd,185.820706837233,190.98627002302,5.1160720189392,tool,0.814085092233654,0,1,1
23,1,animal,0,0,animals,2,a_011.jpg,11,tbd,193.552543182728,199.30135142017,5.68997897216859,animal,1.20434848114019,0,2,1
24,1,animal,0,0,animals,2,a_053.jpg,53,tbd,201.85094295103,206.899809786338,4.99775422143015,animal,0.797982706656057,0,2,1
25,1,animal,0,0,animals,2,a_122.jpg,122,tbd,209.466123358367,215.61468193747,6.08896917834994,animal,1.00047858443895,0,2,1
26,1,tool,0,0,animals,2,t_278.jpg,278,tbd,218.181063825566,224.230018862369,5.99756691163734,tool,1.21939148658566,0,1,1
27,1,tool,0,0,animals,2,t_180.jpg,180,tbd,226.796125561801,232.361625434951,5.51729890868756,tool,0.677031836813057,0,1,1
28,1,tool,0,0,animals,2,t_282.jpg,282,tbd,234.911249359815,241.126643503429,6.16817895399344,tool,0.600273764531721,0,1,1
29,1,animal,0,0,animals,2,a_031.jpg,31,tbd,243.69289581551,248.141968753656,4.40729999375338,animal,0.618183478916308,0,2,1
30,1,tool,0,0,animals,2,t_235.jpg,235,tbd,250.708191879061,255.707209474779,4.94761011565612,tool,0.793209562503762,0,1,1
31,1,animal,0,0,animals,2,a_139.jpg,139,tbd,258.256751612802,264.688680746269,6.37323503688423,animal,0.596914730886965,0,2,1
32,1,animal,0,0,animals,2,a_021.jpg,21,tbd,267.238349894445,275.253365958342,7.96368944766589,animal,0.651553151265034,0,2,1
33,1,tool,0,0,animals,2,t_184.jpg,184,tbd,277.802930226922,284.351638459907,6.49724643919024,tool,0.750710875102413,0,1,1
34,1,animal,0,0,animals,2,a_027.jpg,27,tbd,286.91791707207,292.416739822668,5.45572071196397,animal,0.574719065332829,0,2,1
35,1,animal,0,0,animals,2,a_030.jpg,30,tbd,294.96636823779,301.71501161862,6.6977757773534,animal,0.642746793316746,0,2,1
36,1,animal,0,0,animals,2,a_013.jpg,13,tbd,304.264574604269,309.830028933376,5.50569421864604,animal,0.720976707992122,0,2,1
37,1,tool,0,0,animals,2,t_241.jpg,241,tbd,312.379674668063,317.978506687836,5.53319775050644,tool,0.679750046508616,0,1,1
38,1,tool,0,0,animals,2,t_277.jpg,277,tbd,320.528105916281,328.24319327906,7.65924055843695,tool,0.524464419599553,0,1,1
39,1,tool,0,0,animals,2,t_346.jpg,346,tbd,330.792778074534,336.958142726774,6.11613221931629,tool,0.740663602308814,0,1,1
40,1,animal,0,0,animals,2,a_096.jpg,96,tbd,339.507790706591,344.290090494811,4.73156134325189,animal,0.744222773163074,0,2,1
41,1,animal,0,0,animals,2,a_038.jpg,38,tbd,346.856356919132,353.788237782327,6.88114809798301,animal,0.652215464306209,0,2,1
42,1,tool,0,0,animals,2,t_216.jpg,216,tbd,356.354527620135,363.453107062901,7.03882215392224,tool,0.616578853180727,0,1,1
43,1,animal,0,0,animals,2,a_048.jpg,48,tbd,366.002687368116,370.301762599501,4.24180630711913,animal,0.606138682820074,0,2,1
44,1,tool,0,0,animals,2,t_257.jpg,257,tbd,372.851296363096,380.466461410641,7.54885630833985,tool,0.742841698125176,0,1,1
45,1,animal,0,0,animals,2,a_040.jpg,40,tbd,383.032724627635,389.498055506722,6.40446399235187,animal,0.541517456922065,0,2,1
46,1,tool,0,0,animals,2,t_231.jpg,231,tbd,392.047619454569,397.413212404351,5.31946460873157,tool,0.611690886719316,0,1,1
47,1,tool,0,0,animals,2,t_357.jpg,357,tbd,399.962767371683,404.59519004864,4.57496368373621,tool,0.649865776491424,0,1,1
48,1,tool,0,0,animals,2,t_202.jpg,202,tbd,407.161401306935,413.543374717553,6.32002721994515,tool,1.22698611636542,0,1,1
49,1,animal,0,0,animals,2,a_177.jpg,177,tbd,416.093049638917,422.025098245317,5.88287324280173,animal,0.615462382625992,0,2,1
50,1,animal,0,0,animals,2,a_163.jpg,163,tbd,424.591412779545,431.923239631351,7.26547524769687,animal,0.577662108656114,0,2,1
51,1,animal,0,0,animals,2,a_071.jpg,71,tbd,434.472827954884,439.471749651522,4.95202809589569,animal,0.707397847356333,0,2,1
52,1,tool,0,0,animals,2,t_313.jpg,313,tbd,442.038068996739,449.669904412109,7.57755642748241,tool,0.642564296405908,0,1,1
53,1,animal,0,0,animals,2,a_041.jpg,41,tbd,452.219420570783,457.251620530948,4.97044405752131,animal,0.567088192756728,0,2,1
54,1,animal,0,0,animals,2,a_115.jpg,115,tbd,459.817933782244,465.833334404659,5.95579675186036,animal,0.560559999229099,0,2,1
55,1,tool,0,0,animals,2,t_306.jpg,306,tbd,468.382922086726,473.381940965374,4.93372152186149,tool,0.684198609160831,0,1,1
56,1,animal,0,0,animals,2,a_147.jpg,147,tbd,475.948148374877,483.146735483154,7.13921097789438,animal,0.814709879547991,0,2,1
57,1,animal,0,0,animals,2,a_133.jpg,133,tbd,485.71297400373,493.361419524553,7.58324686653724,animal,0.613396222524898,0,2,1
58,1,tool,0,0,animals,2,t_312.jpg,312,tbd,495.927686911072,502.592957428264,6.61894822066968,tool,0.479165735661809,0,1,1
59,1,tool,0,0,animals,2,t_249.jpg,249,tbd,505.159218400128,513.157602228016,7.94758649148924,tool,0.68477689023257,0,1,1
60,1,tool,0,0,animals,2,t_263.jpg,263,tbd,515.723861596217,522.655747911867,6.89001494336561,tool,0.664002712037927,0,1,1
