trial,phase,object,toShock,seenBefore,shockedCategory,responseSide,filename,num,name,onsetFixationCross,onsetStimulus,interTrialTime,response,reactionTime,wasShocked,buttonPressed,isResponseCorrect
1,1,tool,0,0,animals,1,t_249.jpg,249,tbd,0.0153207101784574,4.88091467217328,4.78289873817792,tool,0.830872709584582,0,2,1
2,1,tool,0,0,animals,1,t_237.jpg,237,tbd,7.44719894938862,14.412464127231,6.90465154479358,tool,0.705490835979617,0,2,1
3,1,animal,0,0,animals,1,a_008.jpg,8,tbd,16.9620198949697,21.6444255006254,4.6144689758955,animal,1.06795042753765,0,1,1
4,1,tool,0,0,animals,1,t_330.jpg,330,tbd,24.2106995143613,32.0924430614396,7.8258090046614,tool,0.602292511235646,0,2,1
5,1,tool,0,0,animals,1,t_346.jpg,346,tbd,34.6586522869602,40.8907727442884,6.17285319167707,tool,0.682338029767379,0,2,1
6,1,tool,0,0,animals,1,t_207.jpg,207,tbd,43.4570217407927,48.2893527277447,4.7823965152284,tool,0.74695304825309,0,2,1
7,1,animal,0,0,animals,1,a_125.jpg,125,tbd,50.8390027912019,58.7706884298032,7.8799877642557,animal,0.579943143033233,0,1,1
8,1,animal,0,0,animals,1,a_047.jpg,47,tbd,61.3370054218594,69.0687511018168,7.67428103123747,animal,0.780252266207754,0,1,1
9,1,tool,0,0,animals,1,t_358.jpg,358,tbd,71.6349895141084,78.5169258221613,6.81505883451514,tool,0.641434535662484,0,2,1
10,1,animal,0,0,animals,1,a_174.jpg,174,tbd,81.066604430921,87.5486085420862,6.42151054911582,animal,0.474016015662528,0,1,1
11,1,animal,0,0,animals,1,a_134.jpg,134,tbd,90.0982512286673,98.0465117452859,7.89948726615623,animal,0.833494707876525,0,1,1
12,1,animal,0,0,animals,1,a_093.jpg,93,tbd,100.612888714551,108.078007156709,7.41142946973821,animal,0.560342142215632,0,1,1
13,1,tool,0,0,animals,1,t_257.jpg,257,tbd,110.627663314107,116.959678217962,6.27901588184921,tool,0.630999784289997,0,2,1
14,1,animal,0,0,animals,1,a_068.jpg,68,tbd,119.52598847461,124.558256212869,4.97106851094819,animal,0.639702252753523,0,1,1
15,1,animal,0,0,animals,1,a_094.jpg,94,tbd,127.107846940586,131.257001598714,4.08262453503797,animal,0.599067212784576,0,1,1
16,1,tool,0,0,animals,1,t_335.jpg,335,tbd,133.823282989325,138.688907741759,4.80471848489397,tool,0.646414247649773,0,2,1
17,1,animal,0,0,animals,1,a_007.jpg,7,tbd,141.238538561192,145.654320136386,4.35691832028061,animal,0.533331871359223,0,1,1
18,1,tool,0,0,animals,1,t_314.jpg,314,tbd,148.220549247399,154.769100477076,6.51118745927832,tool,0.57388287908816,0,2,1
19,1,tool,0,0,animals,1,t_223.jpg,223,tbd,157.318856703399,163.734177704949,6.36516355667265,tool,0.756913113695191,0,2,1
20,1,tool,0,0,animals,1,t_329.jpg,329,tbd,166.28381269392,172.382520425624,6.04529075775907,tool,0.718966143170292,0,2,1
21,1,animal,0,0,animals,1,a_142.jpg,142,tbd,174.94883741768,179.097954549961,4.09618006430896,animal,0.55676531959034,0,1,1
22,1,animal,0,0,animals,1,a_092.jpg,92,tbd,181.647578313252,186.813157104541,5.10484668106962,animal,0.598905562981599,0,1,1
23,1,animal,0,0,animals,1,a_100.jpg,100,tbd,189.379431439011,196.727760464355,7.30086177546476,animal,0.596637013266445,0,1,1
24,1,tool,0,0,animals,1,t_231.jpg,231,tbd,199.277554857994,205.259665292392,5.91834520990886,tool,0.621897360858384,0,2,1
25,1,animal,0,0,animals,1,a_136.jpg,136,tbd,207.809285206878,215.291136328051,7.41267146376335,animal,0.978846426096425,0,1,1
26,1,tool,0,0,animals,1,t_312.jpg,312,tbd,217.857376023278,222.539719727322,4.6184843075747,tool,0.646577821855317,0,2,1
27,1,animal,0,0,animals,1,a_085.jpg,85,tbd,225.089327453926,231.304747305612,6.15029695427167,animal,0.594848281220038,0,1,1
28,1,animal,0,0,animals,1,a_138.jpg,138,tbd,233.871013621739,239.286574852856,5.37252387453904,animal,0.612302611140876,0,1,1
29,1,tool,0,0,animals,1,t_191.jpg,191,tbd,241.836171995246,247.801620312051,5.91627251545306,tool,0.617547249195013,0,2,1
30,1,tool,0,0,animals,1,t_214.jpg,214,tbd,250.367898174592,256.866559271611,6.45149913035456,tool,0.665841731516593,0,2,1
31,1,tool,0,0,animals,1,t_296.jpg,296,tbd,259.416209014335,266.498109015329,7.03001429754152,tool,0.624626804952641,0,2,1
32,1,animal,0,0,animals,1,a_011.jpg,11,tbd,269.047685310026,273.97988700921,4.88370943476403,animal,0.65919580776881,0,1,1
33,1,animal,0,0,animals,1,a_078.jpg,78,tbd,276.529609879225,282.111811851031,5.52453587276067,animal,0.622467625441459,0,1,1
34,1,tool,0,0,animals,1,t_301.jpg,301,tbd,284.661375957848,290.493556520678,5.79049830883817,tool,0.587105127360701,0,2,1
35,1,animal,0,0,animals,1,a_063.jpg,63,tbd,293.05980359278,300.774909285771,7.66334435698253,animal,0.604089903093154,0,1,1
36,1,animal,0,0,animals,1,a_016.jpg,16,tbd,303.324592678435,309.090056802442,5.70667311108778,animal,0.605179435595346,0,1,1
37,1,animal,0,0,animals,1,a_003.jpg,3,tbd,311.639634059341,316.821881382898,5.13538148365971,animal,0.615674805643721,0,1,1
38,1,tool,0,0,animals,1,t_318.jpg,318,tbd,319.388174640659,327.236580160999,7.79129077878326,tool,0.67626333280441,0,2,1
39,1,animal,0,0,animals,1,a_050.jpg,50,tbd,329.786197188881,334.585176036812,4.757445259636,animal,0.591925113948491,0,1,1
40,1,tool,0,0,animals,1,t_218.jpg,218,tbd,337.134815195323,343.300219828193,6.1085047147557,tool,0.607177606771074,0,2,1
41,1,animal,0,0,animals,1,a_041.jpg,41,tbd,345.849800613163,353.581615250873,7.66256453795358,animal,0.587210969494663,0,1,1
42,1,animal,0,0,animals,1,a_081.jpg,81,tbd,356.131102702327,362.663175274108,6.47438515958001,animal,0.628887752637638,0,1,1
43,1,animal,0,0,animals,1,a_000.jpg,0,tbd,365.212824375363,371.011496922576,5.75268899075005,animal,0.580931002940815,0,1,1
44,1,tool,0,0,animals,1,t_332.jpg,332,tbd,373.561249620829,380.593138251812,6.97925923454083,tool,0.757621614518939,0,2,1
45,1,tool,0,0,animals,1,t_355.jpg,355,tbd,383.142700754959,388.924902021152,5.72604103478937,tool,0.653069151941054,0,2,1
46,1,animal,0,0,animals,1,a_055.jpg,55,tbd,391.491169940947,397.039887631433,5.4969038195928,animal,0.729449004602429,0,1,1
47,1,animal,0,0,animals,1,a_119.jpg,119,tbd,399.606268128769,404.621924104632,4.96258110482794,animal,0.667604163396391,0,1,1
48,1,tool,0,0,animals,1,t_206.jpg,206,tbd,407.171527340964,411.737054686561,4.52669943862014,tool,0.656703706639746,0,2,1
49,1,tool,0,0,animals,1,t_224.jpg,224,tbd,414.286841703324,421.785323830918,7.44594243877836,tool,0.715727053168848,0,2,1
50,1,tool,0,0,animals,1,t_272.jpg,272,tbd,424.334971328505,429.017206303814,4.61884936024283,tool,0.637151778083535,0,2,1
51,1,animal,0,0,animals,1,a_164.jpg,164,tbd,431.566935588504,438.498827779631,6.88683126661759,animal,0.544928320323379,0,1,1
52,1,tool,0,0,animals,1,t_278.jpg,278,tbd,441.06513290454,445.280900431596,4.16390871752083,tool,0.580039683887662,0,2,1
53,1,tool,0,0,animals,1,t_195.jpg,195,tbd,447.847171558728,455.245678735626,7.35515667108169,tool,0.62366075493992,0,2,1
54,1,tool,0,0,animals,1,t_239.jpg,239,tbd,457.795293518372,463.594114244572,5.7385981784325,tool,0.636509348409163,0,2,1
55,1,animal,0,0,animals,1,a_030.jpg,30,tbd,466.160387296106,473.458865959775,7.24654960212722,animal,0.611025449404224,0,1,1
56,1,tool,0,0,animals,1,t_344.jpg,344,tbd,476.008528211114,481.657359088536,5.58624766104894,tool,0.522900327324351,0,2,1
57,1,tool,0,0,animals,1,t_308.jpg,308,tbd,484.223626366863,489.539200780137,5.25138016299608,tool,0.618248693875103,0,2,1
58,1,tool,0,0,animals,1,t_284.jpg,284,tbd,492.088782848042,498.487510369017,6.33261467099209,tool,0.709325849262314,0,2,1
59,1,animal,0,0,animals,1,a_029.jpg,29,tbd,501.05377893028,506.685897655645,5.57095684082544,animal,0.532142269931683,0,1,1
60,1,animal,0,0,animals,1,a_077.jpg,77,tbd,509.235561831387,516.800681203672,7.50227861712345,animal,0.400769410869543,0,1,1
