trial,phase,object,toShock,seenBefore,shockedCategory,responseSide,filename,num,name,onsetFixationCross,onsetStimulus,interTrialTime,response,reactionTime,wasShocked,buttonPressed,isResponseCorrect
1,2,tool,0,0,animals,1,t_310.jpg,310,tbd,0.0288902602205781,6.92733090243746,6.76357554490584,0,2.16957809365067,0,2,1
2,2,tool,0,0,animals,1,t_351.jpg,351,tbd,11.5267342679927,20.2584428132523,8.67007769914229,0,1.88007567818204,0,2,1
3,2,animal,1,0,animals,1,a_171.jpg,171,tbd,24.8244125831752,33.8393698193486,8.95443609157649,1,1.68173626047246,1,1,1
4,2,animal,1,0,animals,1,a_079.jpg,79,tbd,38.6052304104915,44.7873739068173,6.11764041141677,1,2.90318924912935,1,1,1
5,2,tool,0,0,animals,1,t_251.jpg,251,tbd,49.5533079466695,57.0852125903593,7.48182744606622,0,1.27089208784219,0,2,1
6,2,tool,0,0,animals,1,t_183.jpg,183,tbd,61.6344459975271,69.8662177279202,8.16584546754277,0,0.630317353300597,0,2,1
7,2,tool,0,0,animals,1,t_273.jpg,273,tbd,74.4155066225403,84.263590637599,9.78875738183197,0,1.79989342274894,0,2,1
8,2,animal,0,0,animals,1,a_015.jpg,15,tbd,88.8295575208913,98.2942950844854,9.41298670073824,1,1.52150870418518,0,1,0
9,2,animal,1,0,animals,1,a_150.jpg,150,tbd,102.843702651691,108.975857405875,6.07266378271822,1,2.86659094428796,1,1,1
10,2,animal,1,0,animals,1,a_005.jpg,5,tbd,113.741742373009,120.20718716107,6.39342492973012,1,1.60969526518875,1,1,1
11,2,tool,0,0,animals,1,t_353.jpg,353,tbd,124.973037167902,134.104632877984,9.07406618779627,0,1.71185953242366,0,2,1
12,2,tool,0,0,animals,1,t_299.jpg,299,tbd,138.653907018714,148.035494870746,9.32409572123622,0,1.51062129624461,0,2,1
13,2,animal,1,0,animals,1,a_107.jpg,107,tbd,152.584767407793,159.900050320031,7.25379329230343,1,1.30949082760344,1,1,1
14,2,tool,0,0,animals,1,t_272.jpg,272,tbd,164.649257939966,174.680695270256,9.96218735860786,0,2.20160846613453,0,2,1
15,2,tool,0,0,animals,1,t_256.jpg,256,tbd,179.246625268825,186.195294884988,6.8965760835113,0,1.22840505683143,0,2,1
16,2,animal,1,0,animals,1,a_133.jpg,133,tbd,190.761214299245,197.143315650766,6.3296817269082,1,1.06591438225132,1,1,1
17,2,tool,0,0,animals,1,t_235.jpg,235,tbd,201.909225635363,210.307561717411,8.33789179778724,0,0.952246892574294,0,2,1
18,2,tool,0,0,animals,1,t_247.jpg,247,tbd,214.873567089109,221.588911646944,6.65230869341704,0,0.932394251853111,0,2,1
19,2,animal,1,0,animals,1,a_112.jpg,112,tbd,226.154857682351,235.06966840599,8.86951575763269,1,1.01922056842886,1,1,1
20,2,animal,0,0,animals,1,a_137.jpg,137,tbd,239.835719835482,249.283865047107,9.39889082477999,1,1.44466788389491,0,1,0
21,2,animal,1,0,animals,1,a_047.jpg,47,tbd,253.84987394691,262.231671881493,8.320906187347,1,1.4814393865654,1,1,1
22,2,tool,0,0,animals,1,t_321.jpg,321,tbd,266.997489493916,275.662484160064,8.61479212189805,0,0.672133723830484,0,2,1
23,2,tool,0,0,animals,1,t_297.jpg,297,tbd,280.211759583742,286.927132045672,6.6636473424126,0,0.463950254728843,0,2,1
24,2,tool,0,0,animals,1,t_343.jpg,343,tbd,291.493113362117,297.825031605043,6.28453423135613,0,0.467760927692325,0,2,1
25,2,animal,1,0,animals,1,a_093.jpg,93,tbd,302.391150517541,309.473062506102,7.02538533094199,1,2.01613219455794,1,1,1
26,2,tool,0,0,animals,1,t_340.jpg,340,tbd,314.23903407215,323.32052878224,9.03014988974709,0,0.760161840893488,0,2,1
27,2,animal,0,0,animals,1,a_126.jpg,126,tbd,327.869843656534,337.134786940659,9.20597979765003,1,1.80761483853166,0,1,0
28,2,tool,0,0,animals,1,t_184.jpg,184,tbd,341.684050176341,350.182346743624,8.4504690821103,0,0.67251411757934,0,2,1
29,2,animal,0,0,animals,1,a_177.jpg,177,tbd,354.731738594731,361.880300956534,7.0947949256516,1,0.732053437014656,0,1,0
30,2,animal,1,0,animals,1,a_155.jpg,155,tbd,366.429560984848,376.194425688477,9.70325347553409,1,1.12964220250615,1,1,1
31,2,animal,0,0,animals,1,a_068.jpg,68,tbd,380.960307127508,389.075383292857,8.05813881274054,0,1.41828215693477,0,2,1
32,2,tool,0,0,animals,1,t_202.jpg,202,tbd,393.641380325401,402.956276429155,9.26324598795938,0,0.775149867792607,0,2,1
33,2,tool,0,0,animals,1,t_270.jpg,270,tbd,407.505542872204,416.203919495372,8.63794564757479,0,0.586900506539678,0,2,1
34,2,animal,1,0,animals,1,a_081.jpg,81,tbd,420.769822231321,430.234673014977,9.40158929202182,0,0.903720389137561,1,2,0
35,2,tool,0,0,animals,1,t_335.jpg,335,tbd,435.000567604212,442.432538383814,7.3679978642419,0,0.630395613059591,0,2,1
36,2,tool,0,0,animals,1,t_246.jpg,246,tbd,446.981785903396,456.413196997423,9.38024820410862,0,0.570438373679281,0,2,1
37,2,animal,0,0,animals,1,a_173.jpg,173,tbd,460.979244385632,470.77740124,9.74331123656772,1,0.839817767370732,0,1,0
38,2,tool,0,0,animals,1,t_294.jpg,294,tbd,475.326660626842,482.475298361774,7.0930920792453,0,0.617371777830158,0,2,1
39,2,animal,1,0,animals,1,a_166.jpg,166,tbd,487.024568332926,494.35650453711,7.266581996319,1,1.68681993747578,1,1,1
40,2,tool,0,0,animals,1,t_300.jpg,300,tbd,499.122362883096,505.421123684707,6.24350802565198,0,1.11558078398957,0,2,1
41,2,animal,1,0,animals,1,a_029.jpg,29,tbd,509.987102435258,518.568814604843,8.51106399778682,1,1.42052859691739,1,1,1
42,2,animal,1,0,animals,1,a_168.jpg,168,tbd,523.334715288076,532.999417763073,9.61953012280708,0,1.81158523838076,1,2,0
43,2,tool,0,0,animals,1,t_301.jpg,301,tbd,537.748775167056,547.413594390218,9.61556386960698,0,0.644150407271809,0,2,1
44,2,animal,1,0,animals,1,a_000.jpg,0,tbd,551.979562235721,559.728055254245,7.68250752966712,1,1.50009600005978,1,1,1
45,2,animal,1,0,animals,1,a_179.jpg,179,tbd,564.493961069265,571.525916389358,6.97309267328569,0,1.51876897112834,1,2,0
46,2,animal,1,0,animals,1,a_104.jpg,104,tbd,576.291816431118,586.223241316823,9.87281141369286,0,1.50701012152058,1,2,0
47,2,tool,0,0,animals,1,t_223.jpg,223,tbd,590.972515329259,599.620895191868,8.59635738161627,0,0.664983219407986,0,2,1
48,2,tool,0,0,animals,1,t_278.jpg,278,tbd,604.186833850329,611.918527000226,7.68521516805045,0,0.507878035084104,0,2,1
49,2,animal,0,0,animals,1,a_127.jpg,127,tbd,616.467957339739,625.949390853262,9.42289879966041,1,0.901576264168398,0,1,0
50,2,animal,1,0,animals,1,a_035.jpg,35,tbd,630.515414827691,640.163534572821,9.59512265834455,1,1.10516870786705,1,1,1
51,2,animal,0,0,animals,1,a_019.jpg,19,tbd,644.912778756741,654.461051236697,9.48541462187126,0,0.995249026756028,0,2,1
52,2,tool,0,0,animals,1,t_200.jpg,200,tbd,659.010275983972,665.592345133526,6.52478221460209,0,0.659412984801747,0,2,1
53,2,tool,0,0,animals,1,t_197.jpg,197,tbd,670.15828058462,677.290229746567,7.06873074125005,0,0.492974361942288,0,2,1
54,2,tool,0,0,animals,1,t_204.jpg,204,tbd,681.839506132455,688.154933376216,6.26392290716587,0,0.581822282060784,0,2,1
55,2,animal,0,0,animals,1,a_100.jpg,100,tbd,692.720837715848,702.352384994686,9.57112910422757,0,0.758000075405107,0,2,1
56,2,animal,1,0,animals,1,a_147.jpg,147,tbd,706.901658173206,715.166693829507,8.20692653528322,1,2.13124588610299,1,1,1
57,2,animal,1,0,animals,1,a_170.jpg,170,tbd,719.915986123935,727.797643575836,7.82477696299159,1,0.949870874957014,1,1,1
58,2,tool,0,0,animals,1,t_316.jpg,316,tbd,732.563683779543,738.712527427448,6.0889840066837,0,0.657446547975269,0,2,1
59,2,tool,0,0,animals,1,t_295.jpg,295,tbd,743.26179451197,751.860040659441,8.54388093173284,0,0.447427823364706,0,2,1
60,2,animal,0,0,animals,1,a_164.jpg,164,tbd,756.409443094859,763.657963376005,7.19606085722777,1,0.832100521164648,0,1,0
