trial,phase,object,toShock,seenBefore,shockedCategory,responseSide,filename,num,name,onsetFixationCross,onsetStimulus,interTrialTime,response,reactionTime,wasShocked,buttonPressed,isResponseCorrect
1,3,animal,0,0,animals,2,a_145.jpg,145,tbd,0.0154871522408939,4.81429729422598,4.71814068181049,animal,1.08780707189089,0,2,1
2,3,tool,0,0,animals,2,t_329.jpg,329,tbd,7.38075989939898,13.1961577487509,5.75731537980258,tool,0.573224431475865,0,1,1
3,3,animal,0,0,animals,2,a_057.jpg,57,tbd,15.7624461955047,21.2113772059984,5.39775051934278,animal,0.857169045891169,0,2,1
4,3,tool,0,0,animals,2,t_268.jpg,268,tbd,23.7609531799626,31.326126435516,7.510229664198,tool,0.806845601954592,0,1,1
5,3,tool,0,0,animals,2,t_341.jpg,341,tbd,33.8757203705691,40.5243369978552,6.58855002405803,tool,1.03501109158242,0,1,1
6,3,tool,0,0,animals,2,t_203.jpg,203,tbd,43.0906110115911,49.8892315999383,6.73901636698649,tool,1.84646167084338,0,1,1
7,3,animal,0,0,animals,2,a_058.jpg,58,tbd,52.4388807011946,57.1878898744999,4.69789623050667,animal,1.31993137802328,0,2,1
8,3,tool,0,0,animals,2,t_180.jpg,180,tbd,59.7541433612769,66.3860985124375,6.5727306967922,tool,1.44408259628199,0,1,1
9,3,tool,0,0,animals,2,t_292.jpg,292,tbd,68.9357649333151,75.3343856499559,6.35190644004355,tool,1.15705156112381,0,1,1
10,3,tool,0,0,animals,2,t_213.jpg,213,tbd,77.8840687489874,82.8330130699323,4.90184533144411,tool,1.43881550686638,0,1,1
11,3,animal,0,0,animals,2,a_115.jpg,115,tbd,85.3826313807494,92.6478489937781,7.20573421986304,animal,1.04429248443921,0,2,1
12,3,animal,0,0,animals,2,a_117.jpg,117,tbd,95.2141044049577,99.579829707417,4.29397301201726,animal,1.29553604931789,0,2,1
13,3,tool,0,0,animals,2,t_317.jpg,317,tbd,102.129451546306,107.761615815862,5.57258247575813,tool,1.37307984470772,0,1,1
14,3,animal,0,0,animals,2,a_062.jpg,62,tbd,110.311254974372,116.393319511772,6.03779956062535,animal,1.25752396984353,0,2,1
15,3,tool,0,0,animals,2,t_330.jpg,330,tbd,118.942935577454,125.791561121137,6.80344155214171,tool,0.93465831654612,0,1,1
16,3,animal,0,0,animals,2,a_154.jpg,154,tbd,128.35782711653,133.723329829777,5.31336023363066,animal,1.08124165231129,0,2,1
17,3,tool,0,0,animals,2,t_358.jpg,358,tbd,136.289669914662,140.438865626709,4.08779031772906,tool,1.30294339495413,0,1,1
18,3,tool,0,0,animals,2,t_337.jpg,337,tbd,143.005074531497,148.853809766118,5.8061933290188,tool,1.19829054271759,0,1,1
19,3,animal,0,0,animals,2,a_168.jpg,168,tbd,151.403483563871,157.46893922548,6.00331596624341,animal,0.983441276347548,0,2,1
20,3,animal,0,0,animals,2,a_149.jpg,149,tbd,160.018512954308,164.200969716994,4.130746054853,animal,1.03357228004188,0,2,1
21,3,animal,0,0,animals,2,a_041.jpg,41,tbd,166.767251428339,172.016113224494,5.18590862792426,animal,1.55778976189049,0,2,1
22,3,tool,0,0,animals,2,t_269.jpg,269,tbd,174.582431499485,179.731365492803,5.10607582543386,tool,0.928726025361357,0,1,1
23,3,tool,0,0,animals,2,t_210.jpg,210,tbd,182.280962955927,188.862957092273,6.5183153400575,tool,1.27853459543167,0,1,1
24,3,animal,0,0,animals,2,a_097.jpg,97,tbd,191.429251632968,199.144346741747,7.6639830828298,animal,1.42749841698605,0,2,1
25,3,tool,0,0,animals,2,t_246.jpg,246,tbd,201.693928809651,208.559209414786,6.80385099093081,tool,0.820952113138446,0,1,1
26,3,animal,0,0,animals,2,a_171.jpg,171,tbd,211.108845686693,216.057831061555,4.89668411668145,animal,1.19258629321939,0,2,1
27,3,tool,0,0,animals,2,t_316.jpg,316,tbd,218.607365981601,224.639456995572,5.98133386430122,tool,1.14517190426977,0,1,1
28,3,tool,0,0,animals,2,t_339.jpg,339,tbd,227.189134321397,234.25438695855,7.00487044139253,tool,1.02858487044432,0,1,1
29,3,animal,0,0,animals,2,a_034.jpg,34,tbd,236.803971592324,241.46976511485,4.60911919551282,animal,1.18252551738442,0,2,1
30,3,animal,0,0,animals,2,a_173.jpg,173,tbd,244.035935531589,249.868058683081,5.77481111622011,animal,0.688439366377679,0,2,1
31,3,tool,0,0,animals,2,t_299.jpg,299,tbd,252.417685653709,259.9661419462,7.49525584102227,tool,1.22566324269519,0,1,1
32,3,animal,0,0,animals,2,a_078.jpg,78,tbd,262.515780783976,269.830773386252,7.26478752981624,animal,1.89052824105511,0,2,1
33,3,tool,0,0,animals,2,t_326.jpg,326,tbd,272.380564893288,280.229005052872,7.79462938644178,tool,1.05463133642388,0,1,1
34,3,animal,0,0,animals,2,a_146.jpg,146,tbd,282.778594818386,289.21059269128,6.37667547595911,animal,0.956332540234143,0,2,1
35,3,animal,0,0,animals,2,a_066.jpg,66,tbd,291.760228642453,297.842351553394,6.01550798777348,animal,1.0858246166672,0,2,1
36,3,tool,0,0,animals,2,t_312.jpg,312,tbd,300.408613699981,305.540879161032,5.0830186497331,tool,0.897605872410168,0,1,1
37,3,animal,0,0,animals,2,a_142.jpg,142,tbd,308.090452889859,315.58894335653,7.45418996571937,animal,0.783951627868191,0,2,1
38,3,animal,0,0,animals,2,a_088.jpg,88,tbd,318.155237255757,325.853591667177,7.64664447736256,animal,0.796531767201486,0,2,1
39,3,tool,0,0,animals,2,t_345.jpg,345,tbd,328.403301707843,334.368741685571,5.91269414676399,tool,0.847687515183679,0,1,1
40,3,animal,0,0,animals,2,a_096.jpg,96,tbd,336.935010888301,343.383808794295,6.38967222490095,animal,1.38192952995541,0,2,1
41,3,tool,0,0,animals,2,t_228.jpg,228,tbd,345.933334092329,351.898759637039,5.91581428356083,tool,1.05740247590438,0,1,1
42,3,animal,0,0,animals,2,a_116.jpg,116,tbd,354.44838436253,361.280298074892,6.7680984549329,animal,0.760110206325407,0,2,1
43,3,tool,0,0,animals,2,t_229.jpg,229,tbd,363.846612501078,370.811657976312,6.92521146061432,tool,0.914108264602874,0,1,1
44,3,animal,0,0,animals,2,a_137.jpg,137,tbd,373.378117374146,377.643858745367,4.20186560230305,animal,0.913035730989577,0,2,1
45,3,animal,0,0,animals,2,a_103.jpg,103,tbd,380.193532863854,387.358723888056,7.11659566664496,animal,1.03254176254723,0,2,1
46,3,animal,0,0,animals,2,a_109.jpg,109,tbd,389.908302748624,395.640474683717,5.67926233173851,animal,0.678065554415298,0,2,1
47,3,tool,0,0,animals,2,t_294.jpg,294,tbd,398.190112880025,402.289205492212,4.04516051026981,tool,0.837645662638352,0,1,1
48,3,animal,0,0,animals,2,a_016.jpg,16,tbd,404.83878691865,409.521161733867,4.63491466809294,animal,0.849982365065443,0,2,1
49,3,tool,0,0,animals,2,t_356.jpg,356,tbd,412.087461406302,419.336026844484,7.20857627839341,tool,0.930471137619861,0,1,1
50,3,animal,0,0,animals,2,a_159.jpg,159,tbd,421.902290915474,427.20122341738,5.24878637342589,animal,1.09855967039493,0,2,1
51,3,tool,0,0,animals,2,t_254.jpg,254,tbd,429.767456056464,434.999711221961,5.18148440210509,tool,0.81619659403168,0,1,1
52,3,animal,0,0,animals,2,a_125.jpg,125,tbd,437.549322155902,443.631287907312,6.04153661473893,animal,0.999915764704383,0,2,1
53,3,animal,0,0,animals,2,a_151.jpg,151,tbd,446.197666800979,453.496099278991,7.25687460439534,animal,1.16546472775644,0,2,1
54,3,animal,0,0,animals,2,a_046.jpg,46,tbd,456.045804187916,462.477862679487,6.38973614631007,animal,0.725931857199612,0,2,1
55,3,tool,0,0,animals,2,t_212.jpg,212,tbd,465.02745661454,471.742634151889,6.67791808928263,tool,0.821609617297327,0,1,1
56,3,tool,0,0,animals,2,t_224.jpg,224,tbd,474.29235926704,481.057632206639,6.71317425421248,tool,1.24086249371703,0,1,1
57,3,tool,0,0,animals,2,t_344.jpg,344,tbd,483.607283873765,489.822609429732,6.15284345744229,tool,0.848191067148946,0,1,1
58,3,animal,0,0,animals,2,a_112.jpg,112,tbd,492.372269435936,496.52140837811,4.09674056164123,animal,0.677608188108024,0,2,1
59,3,tool,0,0,animals,2,t_350.jpg,350,tbd,499.071007444903,503.186818623822,4.04738774136374,tool,1.02251594668905,0,1,1
60,3,tool,0,0,animals,2,t_323.jpg,323,tbd,505.736384013572,512.035081738383,6.23450957819264,tool,0.858555577832703,0,1,1
