trial,phase,object,toShock,seenBefore,shockedCategory,responseSide,filename,num,name,onsetFixationCross,onsetStimulus,interTrialTime,response,reactionTime,wasShocked,buttonPressed,isResponseCorrect
1,3,tool,0,0,animals,1,t_255.jpg,255,tbd,0.0155849952416247,6.86406011480312,6.7787609578203,tool,1.15781937847578,0,2,1
2,3,tool,0,0,animals,1,t_193.jpg,193,tbd,9.4304656293707,16.0957745232213,6.60784823497636,tool,0.759430552325739,0,2,1
3,3,animal,0,0,animals,1,a_165.jpg,165,tbd,18.6453687790081,26.6104043114951,7.90428399114359,animal,0.636183161735516,0,1,1
4,3,animal,0,0,animals,1,a_011.jpg,11,tbd,29.1767068705335,33.4757801745495,4.23687423236717,animal,0.677063242278109,0,1,1
5,3,tool,0,0,animals,1,t_321.jpg,321,tbd,36.025426389202,41.0243596287955,4.95672884599878,tool,0.823751778709266,0,2,1
6,3,animal,0,0,animals,1,a_084.jpg,84,tbd,43.5739859579562,50.2057951752663,6.58323772206188,animal,0.608545856424826,0,1,1
7,3,animal,0,0,animals,1,a_119.jpg,119,tbd,52.7722500828295,59.1875819893253,6.35884884070425,animal,0.821164740393215,0,1,1
8,3,tool,0,0,animals,1,t_190.jpg,190,tbd,61.7372282039773,67.2194193029109,5.42751858606694,tool,0.626557300845889,0,2,1
9,3,animal,0,0,animals,1,a_161.jpg,161,tbd,69.768997522011,77.3174977550239,7.49386076160798,animal,0.758872154891378,0,1,1
10,3,tool,0,0,animals,1,t_334.jpg,334,tbd,79.8670965010833,87.6488907561647,7.72828684794785,tool,0.560756529738228,0,2,1
11,3,tool,0,0,animals,1,t_349.jpg,349,tbd,90.1985097084498,95.5807005187226,5.33352451005091,tool,0.636220046114886,0,2,1
12,3,tool,0,0,animals,1,t_222.jpg,222,tbd,98.1469655519136,104.129111908491,5.92641152768505,tool,0.534170910348166,0,2,1
13,3,animal,0,0,animals,1,a_089.jpg,89,tbd,106.69536731967,114.077166193317,7.33696787999907,animal,0.903434226651825,0,1,1
14,3,tool,0,0,animals,1,t_189.jpg,189,tbd,116.643497618391,122.042374280554,5.34813047858461,tool,0.708572765985082,0,2,1
15,3,animal,0,0,animals,1,a_155.jpg,155,tbd,124.591974630282,131.074011135554,6.42959755327618,animal,0.523212400784814,0,1,1
16,3,animal,0,0,animals,1,a_027.jpg,27,tbd,133.623619182892,141.172113642698,7.48779832286481,animal,0.850394488703841,0,1,1
17,3,tool,0,0,animals,1,t_239.jpg,239,tbd,143.738353658658,147.870840425986,4.07852581665012,tool,0.677841021588392,0,2,1
18,3,animal,0,0,animals,1,a_127.jpg,127,tbd,150.420439172045,157.502332116897,7.02587558874472,animal,0.58979512074211,0,1,1
19,3,tool,0,0,animals,1,t_299.jpg,299,tbd,160.051961332661,165.750859387764,5.62854916093988,tool,0.870494871948722,0,2,1
20,3,tool,0,0,animals,1,t_308.jpg,308,tbd,168.300335292803,174.282326093517,5.93647718102151,tool,0.735313941237109,0,2,1
21,3,animal,0,0,animals,1,a_077.jpg,77,tbd,176.848747324038,182.280939240842,5.37791197659758,animal,0.569933363397013,0,1,1
22,3,animal,0,0,animals,1,a_107.jpg,107,tbd,184.847249818224,191.395982583196,6.49901377471315,animal,0.62320467110203,0,1,1
23,3,animal,0,0,animals,1,a_101.jpg,101,tbd,193.945538030201,198.477919789304,4.48598668804469,animal,1.46265819213295,0,1,1
24,3,tool,0,0,animals,1,t_220.jpg,220,tbd,201.044184181027,207.326113304644,6.23612110748794,tool,0.582742185883944,0,2,1
25,3,animal,0,0,animals,1,a_093.jpg,93,tbd,209.892534855899,215.824623336073,5.88016677106052,animal,0.594531395823651,0,1,1
26,3,animal,0,0,animals,1,a_033.jpg,33,tbd,218.374203158842,222.85660754571,4.43860437942455,animal,0.705790400823844,0,1,1
27,3,animal,0,0,animals,1,a_032.jpg,32,tbd,225.406241893214,232.004872809188,6.53962755632584,animal,0.566824812026425,0,1,1
28,3,tool,0,0,animals,1,t_300.jpg,300,tbd,234.57118338657,241.786336708521,7.15838215373202,tool,0.869724148780733,0,2,1
29,3,tool,0,0,animals,1,t_257.jpg,257,tbd,244.352700848437,250.284647885033,5.8798552375252,tool,0.839637399927597,0,2,1
30,3,tool,0,0,animals,1,t_225.jpg,225,tbd,252.834373962386,260.132989579361,7.22787256597971,tool,0.612655097052993,0,2,1
31,3,animal,0,0,animals,1,a_043.jpg,43,tbd,262.699193352409,267.814765905427,5.06164708695121,animal,0.571184866435033,0,1,1
32,3,tool,0,0,animals,1,t_337.jpg,337,tbd,270.36440795054,277.846222508068,7.42299899474722,tool,0.646073627956866,0,2,1
33,3,animal,0,0,animals,1,a_176.jpg,176,tbd,280.412500691342,284.911522613813,4.44802574157201,animal,0.721068873080185,0,1,1
34,3,tool,0,0,animals,1,t_224.jpg,224,tbd,287.461191921295,292.776705074424,5.25445844333397,tool,0.602108088873138,0,2,1
35,3,animal,0,0,animals,1,a_112.jpg,112,tbd,295.34300570906,300.341925798571,4.93672359593208,animal,0.55502148980213,0,1,1
36,3,tool,0,0,animals,1,t_352.jpg,352,tbd,302.891578107164,306.957394594225,4.00445699317361,tool,0.72584203254155,0,2,1
37,3,tool,0,0,animals,1,t_298.jpg,298,tbd,309.507027658794,317.422161191475,7.86413769913944,tool,0.720503740236381,0,2,1
38,3,animal,0,0,animals,1,a_069.jpg,69,tbd,319.971588665719,325.58722199778,5.5563281277071,animal,0.942738542348707,0,1,1
39,3,animal,0,0,animals,1,a_120.jpg,120,tbd,328.136808555957,334.518700121655,6.3345414201948,animal,0.587589434838264,0,1,1
40,3,animal,0,0,animals,1,a_022.jpg,22,tbd,337.068438386888,341.384063796827,4.27389436805391,animal,0.880364811210711,0,1,1
41,3,tool,0,0,animals,1,t_264.jpg,264,tbd,343.9504475015,348.249502523693,4.23905428918904,tool,0.663221336427341,0,2,1
42,3,tool,0,0,animals,1,t_274.jpg,274,tbd,350.799178245849,356.497992910181,5.64571512565291,tool,0.679944072695434,0,2,1
43,3,tool,0,0,animals,1,t_311.jpg,311,tbd,359.047628861354,366.196198501147,7.08663340724917,tool,0.628074371418734,0,2,1
44,3,animal,0,0,animals,1,a_125.jpg,125,tbd,368.745787945928,372.861581163756,4.05267135398616,animal,0.665081271363306,0,1,1
45,3,animal,0,0,animals,1,a_138.jpg,138,tbd,375.427845234746,379.976904506661,4.49026653538723,animal,0.665844938388545,0,1,1
46,3,animal,0,0,animals,1,a_118.jpg,118,tbd,382.543167936185,387.808855424137,5.20635226258525,animal,0.601171225629514,0,1,1
47,3,tool,0,0,animals,1,t_213.jpg,213,tbd,390.375041877563,396.673730942563,6.25853672164265,tool,0.615683144255854,0,2,1
48,3,animal,0,0,animals,1,a_098.jpg,98,tbd,399.240019389316,403.339168129907,4.04859225419657,animal,0.707419407470297,0,1,1
49,3,tool,0,0,animals,1,t_250.jpg,250,tbd,405.888742500203,411.470938378068,5.52352618695446,tool,0.922983910071707,0,2,1
50,3,tool,0,0,animals,1,t_346.jpg,346,tbd,414.037210146668,421.335753919286,7.2407396533804,tool,0.538497929182995,0,2,1
51,3,tool,0,0,animals,1,t_270.jpg,270,tbd,423.902024404951,428.984180992934,5.03837331325676,tool,0.56733991040619,0,2,1
52,3,animal,0,0,animals,1,a_036.jpg,36,tbd,431.55051338021,436.849456145595,5.24284953924361,animal,0.739274361410935,0,1,1
53,3,animal,0,0,animals,1,a_124.jpg,124,tbd,439.399068041737,445.197876580054,5.73412110106371,animal,0.679361940965464,0,1,1
54,3,animal,0,0,animals,1,a_001.jpg,1,tbd,447.764145462051,451.813286360702,4.00214481134018,animal,0.687894741281525,0,1,1
55,3,tool,0,0,animals,1,t_296.jpg,296,tbd,454.362925519212,460.361688769925,5.94011092098443,tool,0.603910291735701,0,2,1
56,3,tool,0,0,animals,1,t_200.jpg,200,tbd,462.911259612149,470.243231858418,7.26458104476078,tool,0.492624024367615,0,2,1
57,3,animal,0,0,animals,1,a_010.jpg,10,tbd,472.792773193139,477.858364204383,4.99768111028239,animal,0.634851475262622,0,1,1
58,3,tool,0,0,animals,1,t_238.jpg,238,tbd,480.424615766758,487.906469774533,7.41543301211772,tool,0.653010457202981,0,2,1
59,3,animal,0,0,animals,1,a_095.jpg,95,tbd,490.456063709587,495.854890978754,5.34154266760566,animal,0.783970211212363,0,1,1
60,3,tool,0,0,animals,1,t_338.jpg,338,tbd,498.42124998693,503.836776578803,5.35454932374637,tool,0.599302310149142,0,2,1
