trial,phase,object,toShock,seenBefore,shockedCategory,responseSide,filename,num,name,onsetFixationCross,onsetStimulus,interTrialTime,response,reactionTime,wasShocked,buttonPressed,isResponseCorrect
1,2,tool,0,0,animals,1,t_350.jpg,350,tbd,0.0285559409239795,9.82630863819713,9.65988667585352,0,2.1577898059013,0,2,1
2,2,animal,1,0,animals,1,a_052.jpg,52,tbd,14.4255890446025,21.3575647421217,6.86793602085436,1,2.12183065300542,1,1,1
3,2,animal,1,0,animals,1,a_000.jpg,0,tbd,26.1234023922361,35.3881660723246,9.20793584697018,1,2.2845573982745,1,1,1
4,2,tool,0,0,animals,1,t_295.jpg,295,tbd,40.1373590312378,49.4354412803109,9.25164738945776,0,1.52273915755859,0,2,1
5,2,tool,0,0,animals,1,t_203.jpg,203,tbd,53.9846259643468,60.7832116017898,6.75094999746561,0,1.29626795332979,0,2,1
6,2,animal,1,0,animals,1,a_118.jpg,118,tbd,65.3324456785044,74.6638442514409,9.27122726084385,0,1.17297741308585,1,2,0
7,2,animal,1,0,animals,1,a_068.jpg,68,tbd,79.4129762713351,85.6616600687084,6.19041210608299,0,1.60853616455461,1,2,0
8,2,tool,0,0,animals,1,t_320.jpg,320,tbd,90.4108530276217,100.108865549628,9.64019535614879,0,1.45066850421881,0,2,1
9,2,tool,0,0,animals,1,t_293.jpg,293,tbd,104.658038366592,113.089594386709,8.38556772547562,0,1.63539134874918,0,2,1
10,2,animal,0,0,animals,1,a_105.jpg,105,tbd,117.655493039989,125.43718541918,7.71743720593645,1,1.53005761300437,0,1,0
11,2,tool,0,0,animals,1,t_280.jpg,280,tbd,129.986423986138,137.184952405049,7.1259272192153,0,1.53362382854084,0,2,1
12,2,animal,1,0,animals,1,a_010.jpg,10,tbd,141.750786591262,148.549345928707,6.7324607139178,1,1.89756319614116,1,1,1
13,2,tool,0,0,animals,1,t_197.jpg,197,tbd,153.315208595893,163.313179968025,9.94587240130903,0,0.99406718876935,0,2,1
14,2,tool,0,0,animals,1,t_193.jpg,193,tbd,167.862370104499,177.410434472781,9.49876773498808,0,1.83036413626996,0,2,1
15,2,animal,1,0,animals,1,a_134.jpg,134,tbd,181.976268658993,188.308152819691,6.28289207356362,1,1.4859377632738,1,1,1
16,2,tool,0,0,animals,1,t_216.jpg,216,tbd,193.074097914918,199.755981802994,6.62820677904018,0,1.61742139425132,0,2,1
17,2,tool,0,0,animals,1,t_243.jpg,243,tbd,204.32186057091,213.253256385554,8.86315089733281,0,1.05250578356709,0,2,1
18,2,tool,0,0,animals,1,t_215.jpg,215,tbd,217.819237146144,225.317601574948,7.44893720328006,0,1.00648591937124,0,2,1
19,2,animal,1,0,animals,1,a_058.jpg,58,tbd,229.86689434556,237.29870887541,7.36577931939454,1,1.60674808544536,1,1,1
20,2,tool,0,0,animals,1,t_230.jpg,230,tbd,242.047852441645,250.562719156785,8.46143098736503,0,0.721099833801873,0,2,1
21,2,animal,0,0,animals,1,a_001.jpg,1,tbd,255.111892615212,263.026837139857,7.86495414638161,0,1.50435642139018,0,2,1
22,2,tool,0,0,animals,1,t_272.jpg,272,tbd,267.576194377537,277.590670281126,9.96039982087496,0,1.46793477341271,0,2,1
23,2,tool,0,0,animals,1,t_242.jpg,242,tbd,282.156634363668,291.804691964512,9.58015490040646,0,1.03628734476661,0,2,1
24,2,animal,1,0,animals,1,a_028.jpg,28,tbd,296.370523264139,305.751941866769,9.31913405836765,0,0.953432730191707,1,2,0
25,2,animal,0,0,animals,1,a_123.jpg,123,tbd,310.517747764447,317.96624162452,7.38414568645479,0,2.06450756298636,0,2,1
26,2,animal,1,0,animals,1,a_042.jpg,42,tbd,322.532098903414,331.613592653475,9.03087635329334,0,1.82372146247144,1,2,0
27,2,tool,0,0,animals,1,t_235.jpg,235,tbd,336.362734616052,345.044244530991,8.62027314225281,0,0.765219042069475,0,2,1
28,2,animal,1,0,animals,1,a_060.jpg,60,tbd,349.610140939149,356.125456357907,6.45716166615814,0,2.24929038434129,1,2,0
29,2,animal,0,0,animals,1,a_097.jpg,97,tbd,360.891216390955,367.756468032219,6.80915187212687,1,1.70760536914986,0,1,0
30,2,tool,0,0,animals,1,t_194.jpg,194,tbd,372.322327876966,380.353991470489,7.98079001834937,0,1.0544038736416,0,2,1
31,2,tool,0,0,animals,1,t_337.jpg,337,tbd,384.903236772812,392.035076415953,7.0851790101741,0,1.0447270781624,0,2,1
32,2,tool,0,0,animals,1,t_271.jpg,271,tbd,396.600913168018,406.598718721873,9.95146343727349,0,1.00455030368994,0,2,1
33,2,animal,1,0,animals,1,a_122.jpg,122,tbd,411.148086222966,417.313421158246,6.11278192383842,1,2.43413382398376,1,1,1
34,2,animal,1,0,animals,1,a_078.jpg,78,tbd,422.079016014481,429.860998976572,7.7138896970093,1,1.74489587924472,1,1,1
35,2,tool,0,0,animals,1,t_196.jpg,196,tbd,434.626804232787,441.775340525662,7.10183580786863,0,0.776851980057472,0,2,1
36,2,animal,0,0,animals,1,a_015.jpg,15,tbd,446.324535473111,454.922726674736,8.5424436197111,0,1.03377056328372,0,2,1
37,2,tool,0,0,animals,1,t_206.jpg,206,tbd,459.488576256068,467.820011071684,8.2884088492421,0,0.69691634449191,0,2,1
38,2,animal,1,0,animals,1,a_030.jpg,30,tbd,472.369406476433,481.784091368785,9.36045268101214,0,1.21023360489107,1,2,0
39,2,animal,1,0,animals,1,a_059.jpg,59,tbd,486.533346549643,495.248200050639,8.65794737751123,1,1.72353643236511,1,1,1
40,2,animal,0,0,animals,1,a_031.jpg,31,tbd,499.997350352239,507.962190141954,7.91693849104185,0,1.54389429835828,0,2,1
41,2,tool,0,0,animals,1,t_342.jpg,342,tbd,512.528234728147,522.492859627639,9.9063784968618,0,0.814615248646987,0,2,1
42,2,tool,0,0,animals,1,t_355.jpg,355,tbd,527.058731339457,536.440125566479,9.31671296889458,0,1.72669243208475,0,2,1
43,2,tool,0,0,animals,1,t_254.jpg,254,tbd,540.989316344417,548.654399344965,7.62023370345328,0,1.25281522548994,0,2,1
44,2,animal,0,0,animals,1,a_176.jpg,176,tbd,553.220217173861,561.951838527022,8.66700234226708,0,2.09877870505716,0,2,1
45,2,tool,0,0,animals,1,t_354.jpg,354,tbd,566.517637112018,576.099011068798,9.51915183678827,0,0.693967537436947,0,2,1
46,2,animal,1,0,animals,1,a_106.jpg,106,tbd,580.664878931837,587.263561173661,6.54304489518967,0,1.1176640277663,1,2,0
47,2,tool,0,0,animals,1,t_231.jpg,231,tbd,592.029322168904,601.760688861112,9.6742128981801,0,0.689004856171778,0,2,1
48,2,animal,1,0,animals,1,a_138.jpg,138,tbd,606.309857508564,616.174542737684,9.80475678392551,1,1.35258170075576,1,1,1
49,2,animal,1,0,animals,1,a_089.jpg,89,tbd,620.957044964363,628.722107085278,7.70162129915304,0,2.86134200546348,1,2,0
50,2,tool,0,0,animals,1,t_204.jpg,204,tbd,633.471247444197,641.736204525487,8.2127135201079,0,0.784612403757819,0,2,1
51,2,animal,1,0,animals,1,a_101.jpg,101,tbd,646.30204640926,652.767238201993,6.42149138408242,0,2.71894163033539,1,2,0
52,2,tool,0,0,animals,1,t_304.jpg,304,tbd,657.533137111857,666.098099870099,8.51163068417768,0,0.724403690825056,0,2,1
53,2,animal,0,0,animals,1,a_099.jpg,99,tbd,670.647311174864,677.095925630048,6.38417597110091,0,1.1109001173927,0,2,1
54,2,animal,0,0,animals,1,a_094.jpg,94,tbd,681.645153292129,687.77716292306,6.07295143718295,1,1.32696293718254,0,1,0
55,2,tool,0,0,animals,1,t_281.jpg,281,tbd,692.326379359532,699.241584959764,6.85485052111773,0,1.24979681966215,0,2,1
56,2,tool,0,0,animals,1,t_233.jpg,233,tbd,703.807469821581,712.822255872704,8.95522167924882,0,0.863496360149838,0,2,1
57,2,animal,1,0,animals,1,a_098.jpg,98,tbd,717.388157412569,726.902884609429,9.45598805437854,1,1.84639558850085,1,1,1
58,2,animal,0,0,animals,1,a_088.jpg,88,tbd,731.668663886378,741.533318645987,9.81241791036716,1,2.63633237549493,0,1,0
59,2,animal,1,0,animals,1,a_020.jpg,20,tbd,746.099213129755,753.331009121315,7.17852328896549,0,0.830829838667341,1,2,0
60,2,tool,0,0,animals,1,t_330.jpg,330,tbd,758.080188609498,765.461982788924,7.3298606575683,0,1.04331906609241,0,2,1
