trial,phase,object,toShock,seenBefore,shockedCategory,responseSide,filename,num,name,onsetFixationCross,onsetStimulus,interTrialTime,response,reactionTime,wasShocked,buttonPressed,isResponseCorrect
1,3,animal,0,0,animals,2,a_145.jpg,145,tbd,0.015436864633557,4.78089251166602,4.6821837619408,animal,0.965275750281762,0,2,1
2,3,tool,0,0,animals,2,t_315.jpg,315,tbd,7.34738964862754,13.1462062014925,5.75687546946492,tool,0.759297639146098,0,1,1
3,3,animal,0,0,animals,2,a_002.jpg,2,tbd,15.7124720886877,21.4779341504154,5.71428704354597,animal,0.871861429282035,0,2,1
4,3,animal,0,0,animals,2,a_042.jpg,42,tbd,24.0276032964694,31.659419671967,7.58744601307455,animal,1.12573229697591,0,2,1
5,3,animal,0,0,animals,2,a_070.jpg,70,tbd,34.2090615555653,41.5573923395923,7.3081292629141,animal,0.929205918625485,0,2,1
6,3,tool,0,0,animals,2,t_332.jpg,332,tbd,44.1238782508362,49.4726349706307,5.30356027609305,tool,0.84323200270137,0,1,1
7,3,animal,0,0,animals,2,a_129.jpg,129,tbd,52.0224083554831,58.7045156213762,6.60253501646001,animal,0.787695815961342,0,2,1
8,3,animal,0,0,animals,2,a_060.jpg,60,tbd,61.2540346635597,67.9859510762308,6.66935061460346,animal,0.926608287764793,0,2,1
9,3,tool,0,0,animals,2,t_328.jpg,328,tbd,70.5355881488076,76.3843963465315,5.78596128839989,tool,0.847486228622074,0,1,1
10,3,animal,0,0,animals,2,a_053.jpg,53,tbd,78.9506798741395,84.6495897928944,5.64917435720628,animal,0.816590169457413,0,2,1
11,3,animal,0,0,animals,2,a_046.jpg,46,tbd,87.2158579252327,94.8974792779572,7.62331490878267,animal,0.787219204101348,0,2,1
12,3,animal,0,0,animals,2,a_130.jpg,130,tbd,97.4472722276305,101.546400438466,4.04774221066573,animal,0.894476116816804,0,2,1
13,3,tool,0,0,animals,2,t_266.jpg,266,tbd,104.112714115141,110.078119663403,5.90256198570248,tool,0.640187331725429,0,1,1
14,3,tool,0,0,animals,2,t_335.jpg,335,tbd,112.627815109708,117.643326805141,4.96595494373118,tool,0.983114055698934,0,1,1
15,3,tool,0,0,animals,2,t_287.jpg,287,tbd,120.209699497013,128.141417631453,7.87916339760874,tool,1.28342956248707,0,1,1
16,3,animal,0,0,animals,2,a_114.jpg,114,tbd,130.691045723456,136.939967653728,6.18879645223079,animal,0.614189854624783,0,2,1
17,3,tool,0,0,animals,2,t_203.jpg,203,tbd,139.489487016646,144.421796585993,4.87825621961057,tool,0.651642694586371,0,1,1
18,3,tool,0,0,animals,2,t_250.jpg,250,tbd,146.988061831718,152.070389634836,5.02511167661785,tool,0.584341315202437,0,1,1
19,3,tool,0,0,animals,2,t_292.jpg,292,tbd,154.636647503662,161.83518168164,7.14925356686993,tool,0.670917891749923,0,1,1
20,3,animal,0,0,animals,2,a_169.jpg,169,tbd,164.384825810382,169.517110939739,5.08099570424751,animal,0.912225578704238,0,2,1
21,3,animal,0,0,animals,2,a_109.jpg,109,tbd,172.066741276885,179.43190005182,7.30299048626309,animal,0.590887832488079,0,2,1
22,3,tool,0,0,animals,2,t_262.jpg,262,tbd,181.981592611512,187.330450042022,5.30454461109991,tool,0.795619247592185,0,1,1
23,3,tool,0,0,animals,2,t_305.jpg,305,tbd,189.880040928792,195.595620074746,5.65136885833814,tool,0.728946187613474,0,1,1
24,3,tool,0,0,animals,2,t_198.jpg,198,tbd,198.161882754594,204.543725189792,6.32996096912305,tool,0.662976178237841,0,1,1
25,3,animal,0,0,animals,2,a_035.jpg,35,tbd,207.110212704711,213.575567095778,6.40494678404341,animal,0.646489449120054,0,2,1
26,3,tool,0,0,animals,2,t_311.jpg,311,tbd,216.141899695805,220.241084355958,4.03883987504744,tool,0.659200488586066,0,1,1
27,3,animal,0,0,animals,2,a_162.jpg,162,tbd,222.807279681506,228.555986559118,5.70721929673385,animal,1.2546529186493,0,2,1
28,3,animal,0,0,animals,2,a_068.jpg,68,tbd,231.10573845474,236.687949029301,5.51643935341308,animal,0.588002181809316,0,2,1
29,3,animal,0,0,animals,2,a_168.jpg,168,tbd,239.254232877644,246.502800396001,7.19191175336426,animal,0.853476591824801,0,2,1
30,3,tool,0,0,animals,2,t_236.jpg,236,tbd,249.069023946207,256.50087727035,7.37695469243154,tool,0.626799862639928,0,1,1
31,3,animal,0,0,animals,2,a_173.jpg,173,tbd,259.050560528734,266.232422592899,7.11850920991892,animal,0.580629772503926,0,2,1
32,3,animal,0,0,animals,2,a_036.jpg,36,tbd,268.798770588194,276.430577020915,7.58882216006757,animal,0.652820111909023,0,2,1
33,3,tool,0,0,animals,2,t_197.jpg,197,tbd,278.996849002071,283.512555223139,4.45445941281012,tool,0.94114783612531,0,1,1
34,3,animal,0,0,animals,2,a_048.jpg,48,tbd,286.062196465267,293.027477889176,6.90654037516562,animal,0.954574434851565,0,2,1
35,3,tool,0,0,animals,2,t_306.jpg,306,tbd,295.577049852595,301.559005956195,5.93964917328445,tool,0.807402080648899,0,1,1
36,3,tool,0,0,animals,2,t_244.jpg,244,tbd,304.108839959917,309.474379767752,5.31176920604146,tool,0.698310565077918,0,1,1
37,3,animal,0,0,animals,2,a_027.jpg,27,tbd,312.040643730538,317.472814261364,5.36617817496926,animal,0.942174828843235,0,2,1
38,3,tool,0,0,animals,2,t_240.jpg,240,tbd,320.022546912901,327.287786865804,7.2145545630345,tool,1.07558124693787,0,1,1
39,3,tool,0,0,animals,2,t_329.jpg,329,tbd,329.837323869135,334.869710703486,4.97337802058721,tool,1.06828196515835,0,1,1
40,3,animal,0,0,animals,2,a_038.jpg,38,tbd,337.435968251578,344.284617044123,6.79708543467811,animal,1.28839036709451,0,2,1
41,3,tool,0,0,animals,2,t_309.jpg,309,tbd,346.834229420123,352.049742655083,5.15737689556704,tool,0.800488001323174,0,1,1
42,3,animal,0,0,animals,2,a_085.jpg,85,tbd,354.616107328587,361.498037164008,6.82853615207869,animal,0.622601444568318,0,2,1
43,3,tool,0,0,animals,2,t_290.jpg,290,tbd,364.047607844488,371.196253333466,7.08804920472694,tool,0.641782024975328,0,1,1
44,3,animal,0,0,animals,2,a_069.jpg,69,tbd,373.745892009716,380.62789401046,6.82560028638239,animal,0.600465934770909,0,2,1
45,3,animal,0,0,animals,2,a_101.jpg,101,tbd,383.194137446222,388.126401791967,4.88068227641275,animal,1.02127860610381,0,2,1
46,3,animal,0,0,animals,2,a_174.jpg,174,tbd,390.67606356112,394.925115709706,4.19407591822794,animal,0.531910161722408,0,2,1
47,3,tool,0,0,animals,2,t_192.jpg,192,tbd,397.491455365898,404.956662539708,7.39665875844706,tool,0.679618463716906,0,1,1
48,3,tool,0,0,animals,2,t_304.jpg,304,tbd,407.522947350255,412.20526405595,4.62895352471694,tool,1.34134463897772,0,1,1
49,3,tool,0,0,animals,2,t_355.jpg,355,tbd,414.754905939548,421.503468165781,6.69912478221143,tool,1.05944828826523,0,1,1
50,3,animal,0,0,animals,2,a_117.jpg,117,tbd,424.053178045149,428.702188369922,4.58408926727117,animal,0.723993080639957,0,2,1
51,3,tool,0,0,animals,2,t_225.jpg,225,tbd,431.268520007745,437.96711560643,6.64220571084708,tool,0.771458618491124,0,1,1
52,3,animal,0,0,animals,2,a_017.jpg,17,tbd,440.516782186605,446.83216741632,6.26625548959312,animal,0.796699803015144,0,2,1
53,3,animal,0,0,animals,2,a_010.jpg,10,tbd,449.38180064008,453.84751265041,4.41515093880363,animal,0.850615637722512,0,2,1
54,3,animal,0,0,animals,2,a_028.jpg,28,tbd,456.413876682444,463.379082092213,6.91610092534325,animal,0.837410345983699,0,2,1
55,3,tool,0,0,animals,2,t_210.jpg,210,tbd,465.928732314915,471.244264441152,5.25389084222005,tool,1.24754094597301,0,1,1
56,3,tool,0,0,animals,2,t_227.jpg,227,tbd,473.793918512672,479.992692279518,6.13880174020324,tool,0.800471002380618,0,1,1
57,3,tool,0,0,animals,2,t_186.jpg,186,tbd,482.558980938883,487.657900030652,5.04445914520013,tool,0.543530382252357,0,1,1
58,3,animal,0,0,animals,2,a_016.jpg,16,tbd,490.20753389588,496.489432491736,6.2249598715647,animal,1.0223331820107,0,2,1
59,3,tool,0,0,animals,2,t_195.jpg,195,tbd,499.039244044025,506.321144885023,7.23864857280455,tool,0.527956464276031,0,1,1
60,3,tool,0,0,animals,2,t_347.jpg,347,tbd,508.870754053676,513.319779196395,4.39770491952075,tool,0.655589656603297,0,1,1
