trial,phase,object,toShock,seenBefore,shockedCategory,responseSide,filename,num,name,onsetFixationCross,onsetStimulus,interTrialTime,response,reactionTime,wasShocked,buttonPressed,isResponseCorrect
1,3,animal,0,0,animals,1,a_148.jpg,148,tbd,0.0154457953794918,5.78082650151191,5.69446816581645,animal,0.862917859589288,0,1,1
2,3,tool,0,0,animals,1,t_187.jpg,187,tbd,8.34714798384084,12.7795968083683,4.38407618022933,tool,0.720389239715587,0,2,1
3,3,animal,0,0,animals,1,a_095.jpg,95,tbd,15.3458204669078,20.5112315144524,5.1078783656429,animal,0.467085922782644,0,1,1
4,3,tool,0,0,animals,1,t_352.jpg,352,tbd,23.0777005343007,27.409979081287,4.28280615680725,tool,0.919515496871099,0,2,1
5,3,tool,0,0,animals,1,t_221.jpg,221,tbd,29.9764057642806,37.2748748059366,7.24050642298804,tool,0.633955025894466,0,2,1
6,3,tool,0,0,animals,1,t_269.jpg,269,tbd,39.841195646799,47.5894911875421,7.70696180535661,tool,0.63277729161382,0,2,1
7,3,animal,0,0,animals,1,a_139.jpg,139,tbd,50.1559339072228,55.2548562097963,5.03062208202084,animal,0.618700608667496,0,1,1
8,3,tool,0,0,animals,1,t_325.jpg,325,tbd,57.8211254125254,63.0700199235198,5.18771456336795,tool,0.566766760643077,0,2,1
9,3,animal,0,0,animals,1,a_065.jpg,65,tbd,65.6196552332258,72.7682008179891,7.08388459796426,animal,0.664976392852623,0,1,1
10,3,tool,0,0,animals,1,t_243.jpg,243,tbd,75.3344658511796,79.5835781403821,4.17898608997791,tool,0.660819042164803,0,2,1
11,3,tool,0,0,animals,1,t_299.jpg,299,tbd,82.1331951682641,87.3154030415717,5.12368542705705,tool,0.736244070494649,0,2,1
12,3,tool,0,0,animals,1,t_282.jpg,282,tbd,89.8817206750955,95.1805816533779,5.24332963223029,tool,0.691322424143436,0,2,1
13,3,animal,0,0,animals,1,a_159.jpg,159,tbd,97.730224339959,103.762315995398,5.96614444716901,animal,0.636819178156657,0,1,1
14,3,animal,0,0,animals,1,a_021.jpg,21,tbd,106.328603479951,110.860958297419,4.48020259474796,animal,0.474408915448294,0,1,1
15,3,animal,0,0,animals,1,a_024.jpg,24,tbd,113.410569552094,120.109255281464,6.63153032489409,animal,0.556542410600741,0,1,1
16,3,tool,0,0,animals,1,t_348.jpg,348,tbd,122.658836707902,127.624487086961,4.91537810143049,tool,0.529462219788911,0,2,1
17,3,animal,0,0,animals,1,a_032.jpg,32,tbd,130.174069475599,138.172477674067,7.95361817283992,animal,0.581909241793255,0,1,1
18,3,tool,0,0,animals,1,t_340.jpg,340,tbd,140.738753932939,146.887481694464,6.09130325911326,tool,0.627208712487118,0,2,1
19,3,animal,0,0,animals,1,a_171.jpg,171,tbd,149.437110910229,156.568978019979,7.07606386506439,animal,0.823067013603577,0,1,1
20,3,animal,0,0,animals,1,a_080.jpg,80,tbd,159.135244336105,163.201022014384,4.00972742050451,animal,0.60223766672425,0,1,1
21,3,tool,0,0,animals,1,t_253.jpg,253,tbd,165.767335157634,170.166387581885,4.35483443675496,tool,0.56096019708275,0,2,1
22,3,animal,0,0,animals,1,a_176.jpg,176,tbd,172.716033475803,179.181388619458,6.41251483784557,animal,0.474414367921781,0,1,1
23,3,animal,0,0,animals,1,a_062.jpg,62,tbd,181.730976139837,186.963218475985,5.17951620069349,animal,0.655872686485964,0,1,1
24,3,animal,0,0,animals,1,a_026.jpg,26,tbd,189.512865011371,196.361353281016,6.80129925895417,animal,0.520059268847035,0,1,1
25,3,tool,0,0,animals,1,t_289.jpg,289,tbd,198.927750135772,206.092988307833,7.11083328969297,tool,0.781735339962324,0,2,1
26,3,tool,0,0,animals,1,t_263.jpg,263,tbd,208.642611108924,216.074393128012,7.37212673776047,tool,0.574701392541101,0,2,1
27,3,animal,0,0,animals,1,a_087.jpg,87,tbd,218.624024909646,226.122475926068,7.44266407573738,animal,0.711978959685439,0,1,1
28,3,animal,0,0,animals,1,a_110.jpg,110,tbd,228.672126310259,232.787924018359,4.0590949867275,animal,0.608680886751245,0,1,1
29,3,animal,0,0,animals,1,a_074.jpg,74,tbd,235.337522764419,240.103147228192,4.70609447888387,animal,0.585693579147119,0,1,1
30,3,tool,0,0,animals,1,t_182.jpg,182,tbd,242.66943599568,250.417885809349,7.69051054304212,tool,0.736452547424051,0,2,1
31,3,tool,0,0,animals,1,t_215.jpg,215,tbd,252.984209857548,258.199796490777,5.1615889187984,tool,0.576742221304812,0,2,1
32,3,tool,0,0,animals,1,t_310.jpg,310,tbd,260.749384973356,265.781461875044,4.96900302277763,tool,0.569346422082162,0,2,1
33,3,animal,0,0,animals,1,a_121.jpg,121,tbd,268.347928008288,276.229692403058,7.83392781133678,animal,0.881411687549189,0,1,1
34,3,animal,0,0,animals,1,a_096.jpg,96,tbd,278.779285375911,285.344642411894,6.50890348012615,animal,0.628836115463855,0,1,1
35,3,tool,0,0,animals,1,t_271.jpg,271,tbd,287.910902634079,294.092898181654,6.13836077232608,tool,0.62280407608705,0,2,1
36,3,tool,0,0,animals,1,t_213.jpg,213,tbd,296.642594430768,301.308259980533,4.61384285130848,tool,0.593775427831133,0,2,1
37,3,tool,0,0,animals,1,t_216.jpg,216,tbd,303.857887592629,308.290288307096,4.3748516091348,tool,0.537930552625767,0,2,1
38,3,animal,0,0,animals,1,a_044.jpg,44,tbd,310.839918164327,317.471889352175,6.5733355832331,animal,0.671690953618963,0,1,1
39,3,animal,0,0,animals,1,a_168.jpg,168,tbd,320.021474948151,327.586633770687,7.50435850580347,animal,0.546225368509113,0,1,1
40,3,tool,0,0,animals,1,t_225.jpg,225,tbd,330.136251440035,337.734727441615,7.53776027799447,tool,0.63756937436483,0,2,1
41,3,animal,0,0,animals,1,a_178.jpg,178,tbd,340.284301811911,347.482885066851,7.12441994807844,animal,0.505662493633281,0,1,1
42,3,animal,0,0,animals,1,a_099.jpg,99,tbd,350.032482529976,354.164938827598,4.07601573695649,animal,0.592916182151384,0,1,1
43,3,animal,0,0,animals,1,a_150.jpg,150,tbd,356.714581193446,362.596684924509,5.83378853333663,animal,0.546381245107114,0,1,1
44,3,tool,0,0,animals,1,t_188.jpg,188,tbd,365.146277897362,371.21150006481,6.01271824374362,tool,0.775103207764914,0,2,1
45,3,tool,0,0,animals,1,t_228.jpg,228,tbd,373.761356360059,381.476347230373,7.67121905620532,tool,0.631376647388606,0,2,1
46,3,animal,0,0,animals,1,a_111.jpg,111,tbd,384.026045403891,389.874773582371,5.79290534784455,animal,0.666243932579164,0,1,1
47,3,tool,0,0,animals,1,t_309.jpg,309,tbd,392.424459568007,397.306784605347,4.83763383439254,tool,0.710487868545897,0,2,1
48,3,tool,0,0,animals,1,t_341.jpg,341,tbd,399.87307818384,407.021564432864,7.10094976318003,tool,0.581120557535542,0,2,1
49,3,animal,0,0,animals,1,a_097.jpg,97,tbd,409.587873085842,416.13633932108,6.49027847806844,animal,0.483579975898465,0,1,1
50,3,animal,0,0,animals,1,a_106.jpg,106,tbd,418.702828547152,424.551624721184,5.78492845548145,animal,0.541664855516501,0,1,1
51,3,tool,0,0,animals,1,t_242.jpg,242,tbd,427.101245277137,434.432963181553,7.27404009500172,tool,0.556722662960965,0,2,1
52,3,tool,0,0,animals,1,t_236.jpg,236,tbd,436.982638582975,443.464680861454,6.41872833558373,tool,0.640408830131491,0,2,1
53,3,tool,0,0,animals,1,t_252.jpg,252,tbd,446.014309435752,452.446342589355,6.36468028560768,tool,0.581910845463426,0,2,1
54,3,animal,0,0,animals,1,a_014.jpg,14,tbd,455.012614037221,459.411651386987,4.33685807587912,animal,0.62480032286112,0,1,1
55,3,tool,0,0,animals,1,t_343.jpg,343,tbd,461.961302091911,466.42702672083,4.40867359173898,tool,0.486624701256005,0,2,1
56,3,animal,0,0,animals,1,a_120.jpg,120,tbd,468.993297847963,477.02497736055,7.97644880026315,animal,0.506129802684882,0,1,1
57,3,animal,0,0,animals,1,a_137.jpg,137,tbd,479.591268693906,487.423098374029,7.76403311120694,animal,0.594375199916612,0,1,1
58,3,animal,0,0,animals,1,a_126.jpg,126,tbd,489.972661839378,497.454475113971,7.4293135648661,animal,0.541262334676503,0,1,1
59,3,tool,0,0,animals,1,t_286.jpg,286,tbd,500.004098556527,507.185947849517,7.12360643120569,tool,0.784128975836211,0,2,1
60,3,tool,0,0,animals,1,t_342.jpg,342,tbd,509.752238541409,514.784634252428,4.97543655866259,tool,0.594776437819746,0,2,1
