trial,phase,object,toShock,seenBefore,shockedCategory,responseSide,filename,num,name,onsetFixationCross,onsetStimulus,interTrialTime,response,reactionTime,wasShocked,buttonPressed,isResponseCorrect
1,2,tool,0,0,animals,2,t_344.jpg,344,tbd,0.0286652519748714,6.31048366413916,6.14683169292972,1,0.823820811297537,0,1,0
2,2,tool,0,0,animals,2,t_200.jpg,200,tbd,10.9098185885309,18.8916496055708,7.93740181529548,0,1.35214473801489,0,2,1
3,2,animal,1,0,animals,2,a_026.jpg,26,tbd,23.4576075873924,32.6391004858438,9.12180986925343,0,1.20527676110396,1,2,0
4,2,animal,0,0,animals,2,a_121.jpg,121,tbd,37.405043328984,46.5532131683058,9.09004832953579,1,1.20964067831437,0,1,0
5,2,tool,0,0,animals,2,t_339.jpg,339,tbd,51.1191002677442,59.4674778790463,8.29969948902036,0,1.39185266410823,0,2,1
6,2,tool,0,0,animals,2,t_267.jpg,267,tbd,64.0167127502277,73.3315123182624,9.26543310323977,0,1.25534281642877,0,2,1
7,2,tool,0,0,animals,2,t_295.jpg,295,tbd,77.8808026765582,85.4959373162014,7.56229774996423,0,1.78040743646579,0,2,1
8,2,animal,0,0,animals,2,a_122.jpg,122,tbd,90.061847508543,98.7100771648979,8.59853141171427,0,1.65074495528097,0,2,1
9,2,animal,1,0,animals,2,a_039.jpg,39,tbd,103.276071389748,109.358160886935,6.03017320638685,0,1.08131117081257,1,2,0
10,2,animal,0,0,animals,2,a_098.jpg,98,tbd,114.123969342209,120.739403227388,6.56635135762725,0,1.11526126640729,0,2,1
11,2,tool,0,0,animals,2,t_188.jpg,188,tbd,125.305307005034,135.153356344304,9.78292880805961,0,1.36584235761802,0,2,1
12,2,animal,1,0,animals,2,a_136.jpg,136,tbd,139.719269423259,147.984284220357,8.1984301850628,0,1.4073954708133,1,2,0
13,2,animal,1,0,animals,2,a_105.jpg,105,tbd,152.73354853499,159.665440186938,6.88007306316293,0,1.61467961391145,1,2,0
14,2,tool,0,0,animals,2,t_268.jpg,268,tbd,164.431357371298,171.413190312746,6.93555504426844,0,1.01535783964528,0,2,1
15,2,tool,0,0,animals,2,t_340.jpg,340,tbd,175.962579778085,182.244615648419,6.23109812010917,0,1.35353672689416,0,2,1
16,2,animal,1,0,animals,2,a_146.jpg,146,tbd,186.810469712177,196.458643881418,9.60637111270698,1,1.61789337625532,1,1,1
17,2,animal,0,0,animals,2,a_096.jpg,96,tbd,201.224555613286,207.689880496755,6.41000864277417,1,2.02915103820806,0,1,0
18,2,animal,1,0,animals,2,a_116.jpg,116,tbd,212.239125310714,219.554155807779,7.26992901012705,1,1.82021062078456,1,1,1
19,2,tool,0,0,animals,2,t_282.jpg,282,tbd,224.320236566869,231.651927631295,7.29275085338459,0,0.993882081259471,0,2,1
20,2,tool,0,0,animals,2,t_242.jpg,242,tbd,236.217984078689,243.14997291327,6.87058866946264,0,1.05028425186447,0,2,1
21,2,animal,1,0,animals,2,a_077.jpg,77,tbd,247.715893369124,256.880708059803,9.11744444221398,1,1.4201761097238,1,1,1
22,2,tool,0,0,animals,2,t_243.jpg,243,tbd,261.646648337065,269.578388922938,7.87868580885995,0,0.982865483556452,0,2,1
23,2,animal,1,0,animals,2,a_092.jpg,92,tbd,274.144302964097,283.94232313254,9.74081663058154,1,1.24646167078981,1,1,1
24,2,tool,0,0,animals,2,t_234.jpg,234,tbd,288.708248976739,297.639632584819,8.88465539552102,0,1.03967819466016,0,2,1
25,2,animal,1,0,animals,2,a_062.jpg,62,tbd,302.189085876375,309.087684938996,6.83507795949387,1,1.56508151060871,1,1,1
26,2,tool,0,0,animals,2,t_341.jpg,341,tbd,313.853555937549,322.001901539521,8.08654384114805,0,0.752329032210582,0,2,1
27,2,tool,0,0,animals,2,t_194.jpg,194,tbd,326.567881972776,334.04971218798,7.42266896838508,0,0.731992523710232,0,2,1
28,2,animal,0,0,animals,2,a_004.jpg,4,tbd,338.598966303247,345.114330621056,6.46125354366602,1,1.23577799577242,0,1,0
29,2,animal,1,0,animals,2,a_150.jpg,150,tbd,349.680204891104,357.562004508211,7.83094555145442,0,1.95460233607719,1,2,0
30,2,tool,0,0,animals,2,t_348.jpg,348,tbd,362.311199864869,368.593102630276,6.2417870579534,0,0.836933089954982,0,2,1
31,2,tool,0,0,animals,2,t_235.jpg,235,tbd,373.159190830413,382.774066957835,9.54513552857572,0,0.840467587063358,0,2,1
32,2,animal,1,0,animals,2,a_110.jpg,110,tbd,387.323227739286,395.871357037733,8.49210633109696,1,1.88769513971965,1,1,1
33,2,animal,0,0,animals,2,a_113.jpg,113,tbd,400.637314634673,408.319207970478,7.6356413481359,1,1.73231518288412,0,1,0
34,2,animal,1,0,animals,2,a_043.jpg,43,tbd,412.868446369742,419.667114101676,6.73859956384717,1,2.0298688426119,1,1,1
35,2,tool,0,0,animals,2,t_283.jpg,283,tbd,424.433008513867,431.66490584282,7.17854471867218,0,1.08547045924297,0,2,1
36,2,tool,0,0,animals,2,t_221.jpg,221,tbd,436.230798715484,443.6292847191,7.33794059835835,0,0.807539993898899,0,2,1
37,2,animal,1,0,animals,2,a_124.jpg,124,tbd,448.178597528829,456.660223115253,8.42777539685479,0,0.936218781559546,1,2,0
38,2,tool,0,0,animals,2,t_206.jpg,206,tbd,461.426150883859,468.974517526032,7.48226026921262,0,0.951294919182146,0,2,1
39,2,tool,0,0,animals,2,t_199.jpg,199,tbd,473.540560181832,480.955708035747,7.3555229261371,0,0.702540412457893,0,2,1
40,2,animal,0,0,animals,2,a_029.jpg,29,tbd,485.521630095275,495.069557651555,9.49850838740176,1,0.854204015572577,0,1,0
41,2,animal,0,0,animals,2,a_047.jpg,47,tbd,499.618933325299,505.784389806242,6.10323142681229,1,1.64088268199612,0,1,0
42,2,tool,0,0,animals,2,t_229.jpg,229,tbd,510.333684654825,519.331891426755,8.95014583126985,0,0.64880547215671,0,2,1
43,2,tool,0,0,animals,2,t_190.jpg,190,tbd,523.897783657949,532.179511943644,8.2218141856579,0,0.823652746281368,0,2,1
44,2,tool,0,0,animals,2,t_272.jpg,272,tbd,536.728772152872,545.8936500283,9.1029553907992,0,0.675017200080219,0,2,1
45,2,animal,1,0,animals,2,a_153.jpg,153,tbd,550.45954803272,557.541438032883,7.02818666046107,1,1.13870890212729,1,1,1
46,2,animal,1,0,animals,2,a_080.jpg,80,tbd,562.290685669309,572.105227206225,9.76764600122416,1,1.37548075803625,1,1,1
47,2,tool,0,0,animals,2,t_237.jpg,237,tbd,576.854629436807,586.469443341685,9.56439378393525,0,0.583756292292492,0,2,1
48,2,tool,0,0,animals,2,t_255.jpg,255,tbd,591.018664742007,599.566946710203,8.49239640396402,0,0.663722525336198,0,2,1
49,2,animal,1,0,animals,2,a_118.jpg,118,tbd,604.132859147687,610.481590529434,6.30209034520706,1,0.782525889587305,1,1,1
50,2,tool,0,0,animals,2,t_301.jpg,301,tbd,615.247512524816,622.229366955494,6.92696104919256,0,0.643192934507169,0,2,1
51,2,animal,0,0,animals,2,a_078.jpg,78,tbd,626.778631975743,636.493445207078,9.66530733135634,1,1.12065089339649,0,1,0
52,2,animal,1,0,animals,2,a_033.jpg,33,tbd,641.059375605711,650.140716507956,9.04077926752921,1,1.48984034212026,1,1,1
53,2,animal,1,0,animals,2,a_112.jpg,112,tbd,654.890107833557,661.072173243563,6.12350489120752,1,0.886851607287099,1,1,1
54,2,tool,0,0,animals,2,t_314.jpg,314,tbd,665.838068938693,673.703155387938,7.81322265598825,0,1.0143189797418,0,2,1
55,2,animal,0,0,animals,2,a_139.jpg,139,tbd,678.269087069509,687.917286256061,9.59621157070057,1,1.0988024412145,0,1,0
56,2,tool,0,0,animals,2,t_260.jpg,260,tbd,692.466458263229,701.714532812251,9.20224402863329,0,0.628088892960477,0,2,1
57,2,tool,0,0,animals,2,t_271.jpg,271,tbd,706.280565525273,716.078589221799,9.74116568918021,0,0.663509557452016,0,2,1
58,2,tool,0,0,animals,2,t_248.jpg,248,tbd,720.644552656111,727.392988192112,6.69358181694529,0,0.717608852445665,0,2,1
59,2,animal,1,0,animals,2,a_143.jpg,143,tbd,731.959115201154,739.440888967039,7.42232032368681,1,0.970108579019325,1,1,1
60,2,animal,1,0,animals,2,a_030.jpg,30,tbd,744.206834696793,754.238181067567,9.97667220710225,1,0.849423143167769,1,1,1
