trial,phase,object,toShock,seenBefore,shockedCategory,responseSide,filename,num,name,onsetFixationCross,onsetStimulus,interTrialTime,response,reactionTime,wasShocked,buttonPressed,isResponseCorrect
1,3,tool,0,0,animals,1,t_190.jpg,190,tbd,0.0154520615378715,4.94771952260544,4.86088856192154,tool,1.0651410576329,0,2,1
2,3,animal,0,0,animals,1,a_012.jpg,12,tbd,7.51406840333038,14.8793313978176,7.31022184587433,animal,0.930928135921022,0,1,1
3,3,tool,0,0,animals,1,t_229.jpg,229,tbd,17.4456154897262,24.6109061958659,7.10741748857638,tool,0.678767493010128,0,2,1
4,3,animal,0,0,animals,1,a_118.jpg,118,tbd,27.1771979854548,34.0925395283657,6.85308507585136,animal,0.57757922761175,0,1,1
5,3,animal,0,0,animals,1,a_023.jpg,23,tbd,36.6421267081341,42.1077280157133,5.40359510065752,animal,0.959703351439202,0,1,1
6,3,tool,0,0,animals,1,t_347.jpg,347,tbd,44.6573944174515,52.1226390657994,7.39827300518049,tool,0.571268411920755,0,2,1
7,3,tool,0,0,animals,1,t_186.jpg,186,tbd,54.6722291321976,61.4542558162102,6.72187218773561,tool,0.668122562029566,0,2,1
8,3,tool,0,0,animals,1,t_320.jpg,320,tbd,64.0039190105808,69.9027493479125,5.8312235605641,tool,0.810852968063045,0,2,1
9,3,animal,0,0,animals,1,a_071.jpg,71,tbd,72.4524099763903,80.4509041174924,7.94175212697852,animal,1.82720156012419,0,1,1
10,3,tool,0,0,animals,1,t_282.jpg,282,tbd,83.0004771848453,88.1827480136481,5.1267186963714,tool,0.659624963384886,0,2,1
11,3,tool,0,0,animals,1,t_266.jpg,266,tbd,90.7324548282131,95.4981476740522,4.71071474953822,tool,0.714645743916662,0,2,1
12,3,animal,0,0,animals,1,a_028.jpg,28,tbd,98.0644654433154,103.296776011398,5.17430674247569,animal,1.09037469829582,0,1,1
13,3,tool,0,0,animals,1,t_264.jpg,264,tbd,105.846369285164,111.511935504146,5.61168680431875,tool,0.54651363117955,0,2,1
14,3,animal,0,0,animals,1,a_066.jpg,66,tbd,114.078235312153,119.06045944169,4.92647206577807,animal,0.77037599407231,0,1,1
15,3,tool,0,0,animals,1,t_195.jpg,195,tbd,121.610074525553,128.558852550726,6.89857854773554,tool,1.02728674779701,0,2,1
16,3,animal,0,0,animals,1,a_162.jpg,162,tbd,131.108494576473,135.84077339162,4.68289971466101,animal,0.580779538598108,0,1,1
17,3,tool,0,0,animals,1,t_327.jpg,327,tbd,138.407177439061,144.722632586917,6.24762889351241,tool,1.31335375226445,0,2,1
18,3,tool,0,0,animals,1,t_254.jpg,254,tbd,147.288926300927,153.854274162351,6.51222968005719,tool,1.10414552934435,0,2,1
19,3,animal,0,0,animals,1,a_087.jpg,87,tbd,156.403952752084,161.036318230293,4.57574918952788,animal,1.55338124581613,0,1,1
20,3,tool,0,0,animals,1,t_249.jpg,249,tbd,163.60264241429,169.518123798411,5.85519707916432,tool,0.602979972105459,0,2,1
21,3,tool,0,0,animals,1,t_307.jpg,307,tbd,172.084455359352,179.133132288312,6.98371334160602,tool,0.691249283182515,0,2,1
22,3,animal,0,0,animals,1,a_061.jpg,61,tbd,181.68271850587,188.331360731116,6.60123233840562,animal,0.752506468486899,0,1,1
23,3,animal,0,0,animals,1,a_110.jpg,110,tbd,190.897753552771,197.32980483729,6.37313394814159,animal,1.01147025795217,0,1,1
24,3,animal,0,0,animals,1,a_106.jpg,106,tbd,199.879447504511,205.261720129439,5.32606364659715,animal,0.911812868916968,0,1,1
25,3,tool,0,0,animals,1,t_302.jpg,302,tbd,207.811378512759,215.393197808408,7.53838688577749,tool,0.705857878541792,0,2,1
26,3,animal,0,0,animals,1,a_102.jpg,102,tbd,217.942866455303,225.341432184841,7.34054958573841,animal,0.489040176954404,0,1,1
27,3,tool,0,0,animals,1,t_208.jpg,208,tbd,227.891108850155,235.50616480909,7.5676834154323,tool,0.750773527992351,0,2,1
28,3,animal,0,0,animals,1,a_011.jpg,11,tbd,238.072587779998,243.338199800183,5.2040300566586,animal,0.487001574365422,0,1,1
29,3,animal,0,0,animals,1,a_153.jpg,153,tbd,245.871066333296,252.919789448341,6.99388824728837,animal,0.69285328751721,0,1,1
30,3,animal,0,0,animals,1,a_120.jpg,120,tbd,255.469477980913,261.268343342695,5.73676576170873,animal,0.983734550141889,0,1,1
31,3,tool,0,0,animals,1,t_336.jpg,336,tbd,263.834621019868,270.883119298474,6.99852470423702,tool,0.542355279611911,0,2,1
32,3,animal,0,0,animals,1,a_082.jpg,82,tbd,273.432888335963,279.531571006109,6.04567816184677,animal,1.01232085173251,0,1,1
33,3,animal,0,0,animals,1,a_037.jpg,37,tbd,282.081330100758,289.946521250221,7.80938564649852,animal,0.701678999825162,0,1,1
34,3,animal,0,0,animals,1,a_085.jpg,85,tbd,292.512787701609,298.778302217833,6.19231003377929,animal,0.79844590954599,0,1,1
35,3,tool,0,0,animals,1,t_274.jpg,274,tbd,301.344550066491,307.809839297242,6.41107314158126,tool,0.656245360572939,0,2,1
36,3,animal,0,0,animals,1,a_022.jpg,22,tbd,310.35948132299,315.725177312049,5.29554519188269,animal,0.847209758155259,0,1,1
37,3,animal,0,0,animals,1,a_158.jpg,158,tbd,318.274788226335,322.890570333203,4.55392601671368,animal,0.774216816287662,0,1,1
38,3,tool,0,0,animals,1,t_189.jpg,189,tbd,325.456830369857,332.372181855606,6.84845118794484,tool,0.701999095070278,0,2,1
39,3,animal,0,0,animals,1,a_175.jpg,175,tbd,334.938458570568,339.270949970014,4.276979143892,animal,0.528485982390521,0,1,1
40,3,animal,0,0,animals,1,a_128.jpg,128,tbd,341.820553186618,347.186152954661,5.30034718066891,animal,0.644840283566737,0,1,1
41,3,tool,0,0,animals,1,t_205.jpg,205,tbd,349.73582224303,354.184947305333,4.38863330448784,tool,0.906136791193603,0,2,1
42,3,tool,0,0,animals,1,t_239.jpg,239,tbd,356.734560464775,364.683049826901,7.8859633811628,tool,0.678477867752008,0,2,1
43,3,animal,0,0,animals,1,a_024.jpg,24,tbd,367.232627063831,374.881287765028,7.59198549832224,animal,0.657750384038991,0,1,1
44,3,animal,0,0,animals,1,a_059.jpg,59,tbd,377.430834979485,385.196023947938,7.7239466395076,animal,0.76851828699364,0,1,1
45,3,tool,0,0,animals,1,t_225.jpg,225,tbd,387.74563133412,392.727992418236,4.92448513742985,tool,0.784770658039633,0,2,1
46,3,tool,0,0,animals,1,t_338.jpg,338,tbd,395.294286132244,401.209642429044,5.86899478986807,tool,0.777561138061174,0,2,1
47,3,animal,0,0,animals,1,a_009.jpg,9,tbd,403.759424937475,407.908559814322,4.09073192611117,animal,0.725994371259731,0,1,1
48,3,animal,0,0,animals,1,a_121.jpg,121,tbd,410.458236158898,415.540495184589,5.02395676025848,animal,0.782274043415782,0,1,1
49,3,tool,0,0,animals,1,t_331.jpg,331,tbd,418.090164793695,424.105606021578,5.96703131997008,tool,0.62946961776197,0,2,1
50,3,tool,0,0,animals,1,t_193.jpg,193,tbd,426.671973184296,432.703992010258,5.97926964294221,tool,0.632525276489105,0,2,1
51,3,tool,0,0,animals,1,t_240.jpg,240,tbd,435.253758481853,441.702514376192,6.39037377263456,tool,0.585462615438701,0,2,1
52,3,animal,0,0,animals,1,a_052.jpg,52,tbd,444.268807448728,449.517775157597,5.19455629524228,animal,0.738477444379896,0,1,1
53,3,animal,0,0,animals,1,a_122.jpg,122,tbd,452.067359771471,459.865892208538,7.7335379088098,animal,0.508841499800837,0,1,1
54,3,tool,0,0,animals,1,t_313.jpg,313,tbd,462.415547705227,467.08124189816,4.60912612606631,tool,0.842791609846245,0,2,1
55,3,tool,0,0,animals,1,t_306.jpg,306,tbd,469.630900281481,477.379341340657,7.69926153674618,tool,0.580130688214922,0,2,1
56,3,tool,0,0,animals,1,t_181.jpg,181,tbd,479.929035325752,485.594592884843,5.60802733170003,tool,0.663307341660584,0,2,1
57,3,animal,0,0,animals,1,a_146.jpg,146,tbd,488.144241646062,495.992748712854,7.78373937832954,animal,0.919614789616389,0,1,1
58,3,animal,0,0,animals,1,a_114.jpg,114,tbd,498.559028314447,502.741519810113,4.12217547572905,animal,0.888114274192958,0,1,1
59,3,tool,0,0,animals,1,t_298.jpg,298,tbd,505.291156704074,511.973268447464,6.62386128549071,tool,0.563792038990869,0,2,1
60,3,tool,0,0,animals,1,t_326.jpg,326,tbd,514.522837665976,522.004724380484,7.41763383851286,tool,0.70877401679445,0,2,1
