trial,phase,object,toShock,seenBefore,shockedCategory,responseSide,filename,num,name,onsetFixationCross,onsetStimulus,interTrialTime,response,reactionTime,wasShocked,buttonPressed,isResponseCorrect
1,3,tool,0,0,animals,1,t_306.jpg,306,tbd,0.0155143830124871,7.79706718475609,7.70583278801606,tool,1.29377522290815,0,2,1
2,3,animal,0,0,animals,1,a_087.jpg,87,tbd,10.3801788116052,14.6626086569395,4.23180995253581,animal,1.1804686964133,0,1,1
3,3,tool,0,0,animals,1,t_281.jpg,281,tbd,17.2289119655215,23.3109646933372,6.01578906414538,tool,1.16329249773116,0,2,1
4,3,animal,0,0,animals,1,a_111.jpg,111,tbd,25.8772433055019,30.392892335396,4.45457773599481,animal,0.713644165109145,0,1,1
5,3,animal,0,0,animals,1,a_177.jpg,177,tbd,32.9591812110066,37.6582235993628,4.64895591854653,animal,1.12955719009551,0,1,1
6,3,animal,0,0,animals,1,a_004.jpg,4,tbd,40.2077310982531,45.1234216951088,4.86550445765736,animal,1.39860670833878,0,1,1
7,3,tool,0,0,animals,1,t_190.jpg,190,tbd,47.6730090564433,52.2720200450676,4.53958834706895,tool,1.14821677755026,0,2,1
8,3,tool,0,0,animals,1,t_280.jpg,280,tbd,54.8216673834177,61.5201391882874,6.65624272091382,tool,0.993308653038184,0,2,1
9,3,animal,0,0,animals,1,a_162.jpg,162,tbd,64.0865079263422,69.3353269083291,5.20640410876292,animal,1.2823872873978,0,1,1
10,3,animal,0,0,animals,1,a_119.jpg,119,tbd,71.9017290025859,77.7504733821461,5.80747364431915,animal,1.34059097255158,0,1,1
11,3,tool,0,0,animals,1,t_309.jpg,309,tbd,80.3000572154215,86.6987536294055,6.35554373381271,tool,1.89151931733613,0,2,1
12,3,animal,0,0,animals,1,a_006.jpg,6,tbd,89.2483512541876,95.5968623007029,6.31136178126617,animal,1.93576503579607,0,1,1
13,3,animal,0,0,animals,1,a_081.jpg,81,tbd,98.1633192402533,105.261808557127,7.05443134802945,animal,0.754078616804691,0,1,1
14,3,tool,0,0,animals,1,t_188.jpg,188,tbd,107.811473856511,114.460044463089,6.59293426931469,tool,0.734135457056254,0,2,1
15,3,animal,0,0,animals,1,a_145.jpg,145,tbd,117.043019137072,124.824714664872,7.72194489666682,animal,0.957730415266269,0,1,1
16,3,animal,0,0,animals,1,a_126.jpg,126,tbd,127.374369380075,133.78965184456,6.37046104579963,animal,1.47310457723142,0,1,1
17,3,animal,0,0,animals,1,a_065.jpg,65,tbd,136.339268713306,143.204363404826,6.82190606872361,animal,1.74374460896979,0,1,1
18,3,tool,0,0,animals,1,t_304.jpg,304,tbd,145.75414609238,151.619573383718,5.8151811889921,tool,0.929641606944642,0,2,1
19,3,tool,0,0,animals,1,t_206.jpg,206,tbd,154.185875088637,159.568086482923,5.34022617743751,tool,0.911503851604721,0,2,1
20,3,tool,0,0,animals,1,t_336.jpg,336,tbd,162.117631186808,167.766481472308,5.60123375594375,tool,1.56732526250198,0,2,1
21,3,animal,0,0,animals,1,a_097.jpg,97,tbd,170.316098020319,175.598284429529,5.22927756773369,animal,2.11885498111224,0,1,1
22,3,tool,0,0,animals,1,t_350.jpg,350,tbd,178.164587738111,184.196663895451,5.9864367922428,tool,1.45071518912118,0,2,1
23,3,animal,0,0,animals,1,a_003.jpg,3,tbd,186.762937696623,192.595009748586,5.76889838168007,animal,1.18662516073346,0,1,1
24,3,tool,0,0,animals,1,t_338.jpg,338,tbd,195.161315623029,199.743651076726,4.5339290418583,,2.50180181549877,0,,0
25,3,tool,0,0,animals,1,t_208.jpg,208,tbd,202.259880312089,209.291774613985,6.98013816254091,tool,0.848371466934623,0,2,1
26,3,tool,0,0,animals,1,t_292.jpg,292,tbd,211.858113203165,217.523561406277,5.62182890313394,tool,1.15878556172538,0,2,1
27,3,animal,0,0,animals,1,a_008.jpg,8,tbd,220.073193990922,224.605519517943,4.47214261385363,animal,1.65506297755746,0,1,1
28,3,animal,0,0,animals,1,a_088.jpg,88,tbd,227.155128047636,231.83747405344,4.62605534320539,animal,1.72842962218965,0,1,1
29,3,tool,0,0,animals,1,t_189.jpg,189,tbd,234.387103110028,241.152334786488,6.70968336300488,tool,0.722703581162932,0,2,1
30,3,tool,0,0,animals,1,t_357.jpg,357,tbd,243.701985652899,250.45056264206,6.69658826240553,tool,1.70593278862179,0,2,1
31,3,tool,0,0,animals,1,t_283.jpg,283,tbd,253.000210301143,259.448812082941,6.39603463423267,tool,1.27383174242641,0,2,1
32,3,animal,0,0,animals,1,a_023.jpg,23,tbd,261.998468081076,269.680172942197,7.6283077263702,animal,1.65189317620934,0,1,1
33,3,tool,0,0,animals,1,t_317.jpg,317,tbd,272.246479458106,278.328532506655,6.02588072945519,tool,1.96581608682027,0,2,1
34,3,animal,0,0,animals,1,a_000.jpg,0,tbd,280.894794440719,285.227035037717,4.28006556056104,,2.5050777793731,0,,0
35,3,tool,0,0,animals,1,t_193.jpg,193,tbd,287.743464089557,295.308494089291,7.51717404248999,tool,0.768361165000897,0,2,1
36,3,tool,0,0,animals,1,t_313.jpg,313,tbd,297.874808944251,302.457245108018,4.53940287211808,tool,2.35881147692999,0,2,1
37,3,tool,0,0,animals,1,t_284.jpg,284,tbd,305.023501268894,309.672474715753,4.59839100945324,tool,1.22682836414788,0,2,1
38,3,animal,0,0,animals,1,a_070.jpg,70,tbd,312.222124299233,318.137535858632,5.85775901411527,animal,0.916963043018768,0,1,1
39,3,animal,0,0,animals,1,a_148.jpg,148,tbd,320.703814150063,325.919417411402,5.15528785311175,animal,1.02439534997575,0,1,1
40,3,tool,0,0,animals,1,t_341.jpg,341,tbd,328.468975586062,335.417477459621,6.89136931695764,tool,1.50364827369413,0,2,1
41,3,tool,0,0,animals,1,t_271.jpg,271,tbd,338.000484206876,345.148988261419,7.09445518949856,tool,1.33336358171982,0,2,1
42,3,animal,0,0,animals,1,a_152.jpg,152,tbd,347.698623091193,355.013787558115,7.271615127248,animal,1.40487799496805,0,1,1
43,3,animal,0,0,animals,1,a_099.jpg,99,tbd,357.563402181731,365.078485118398,7.4612967677468,animal,1.26750112024456,0,1,1
44,3,animal,0,0,animals,1,a_110.jpg,110,tbd,367.644789068445,375.643117730307,7.94601705843214,animal,1.56422922967613,0,1,1
45,3,tool,0,0,animals,1,t_346.jpg,346,tbd,378.209365872865,384.44134414258,6.17970263307818,tool,0.696229020559258,0,2,1
46,3,animal,0,0,animals,1,a_002.jpg,2,tbd,386.991062042129,392.739702857098,5.70766089756174,animal,0.903203609868797,0,1,1
47,3,animal,0,0,animals,1,a_133.jpg,133,tbd,395.306089235452,401.038240540463,5.67986305409285,animal,0.888928117794421,0,1,1
48,3,tool,0,0,animals,1,t_345.jpg,345,tbd,403.587864465328,407.653597350791,4.00778220114448,tool,1.29979184776676,0,2,1
49,3,tool,0,0,animals,1,t_274.jpg,274,tbd,410.219934977773,414.885557018011,4.60424712880894,tool,1.34798867244899,0,2,1
50,3,tool,0,0,animals,1,t_244.jpg,244,tbd,417.451868986376,423.317275750822,5.80603233379894,tool,1.70161283978632,0,2,1
51,3,animal,0,0,animals,1,a_043.jpg,43,tbd,425.883584832593,431.365762517871,5.43479191492803,animal,0.828359670385908,0,1,1
52,3,tool,0,0,animals,1,t_207.jpg,207,tbd,433.932013867756,438.697660893071,4.71711873737528,tool,1.1797637259242,0,2,1
53,3,tool,0,0,animals,1,t_269.jpg,269,tbd,441.263957787,447.529275580191,6.2142000799028,tool,1.21936138598539,0,2,1
54,3,tool,0,0,animals,1,t_245.jpg,245,tbd,450.095588510756,454.661235279485,4.51086631991507,tool,1.48455088609444,0,2,1
55,3,animal,0,0,animals,1,a_010.jpg,10,tbd,457.227545002723,465.042572035678,7.75304655683806,tool,1.21760890247242,0,2,0
56,3,animal,0,0,animals,1,a_108.jpg,108,tbd,467.608917039513,475.123967261445,7.47086994821767,animal,0.88552354010244,0,1,1
57,3,animal,0,0,animals,1,a_005.jpg,5,tbd,477.690278909076,482.405791884157,4.66430825271283,animal,0.889930407503925,0,1,1
58,3,tool,0,0,animals,1,t_184.jpg,184,tbd,484.955538328915,489.587876011705,4.58107171972459,tool,0.849985714652576,0,2,1
59,3,animal,0,0,animals,1,a_117.jpg,117,tbd,492.137491276786,496.369878480706,4.17814866601056,animal,1.23633488159612,0,1,1
60,3,animal,0,0,animals,1,a_077.jpg,77,tbd,498.936139131838,504.285025756355,5.28918319603429,animal,1.07337796978936,0,1,1
