trial,phase,object,toShock,seenBefore,shockedCategory,responseSide,filename,num,name,onsetFixationCross,onsetStimulus,interTrialTime,response,reactionTime,wasShocked,buttonPressed,isResponseCorrect
1,1,tool,0,0,animals,1,t_210.jpg,210,tbd,0.0154976578996866,7.71387517255607,7.61400498070585,,2.50489462260339,0,,0
2,1,animal,0,0,animals,1,a_101.jpg,101,tbd,10.2468494360855,15.6956646692997,5.39759838036696,animal,1.79892282325636,0,1,1
3,1,animal,0,0,animals,1,a_124.jpg,124,tbd,18.2619597469347,24.2439683034136,5.93586461749408,animal,1.00168265520551,0,1,1
4,1,tool,0,0,animals,1,t_229.jpg,229,tbd,26.8102845493395,33.5755429580422,6.72641707747422,tool,0.730354880579398,0,2,1
5,1,animal,0,0,animals,1,a_050.jpg,50,tbd,36.1417924917787,40.5907773920517,4.39431174138866,animal,1.01823978665925,0,1,1
6,1,animal,0,0,animals,1,a_086.jpg,86,tbd,43.1404082138524,50.122233953276,6.92642058628758,animal,0.932138084566759,0,1,1
7,1,tool,0,0,animals,1,t_187.jpg,187,tbd,52.6885056174979,60.170124645354,7.43057801807859,tool,1.1185219984618,0,2,1
8,1,tool,0,0,animals,1,t_357.jpg,357,tbd,62.736592918096,67.5688508915646,4.77259068570979,tool,0.845927333706641,0,2,1
9,1,tool,0,0,animals,1,t_359.jpg,359,tbd,70.1184765816597,76.0505359901472,5.87375788310783,tool,1.43056762190099,0,2,1
10,1,animal,0,0,animals,1,a_136.jpg,136,tbd,78.6000924021992,84.9487790540843,6.2941407908008,animal,1.03256045611488,0,1,1
11,1,animal,0,0,animals,1,a_121.jpg,121,tbd,87.5150571329395,94.913478684055,7.35120007798993,animal,0.946082215034039,0,1,1
12,1,animal,0,0,animals,1,a_144.jpg,144,tbd,97.4630880168334,105.061489939171,7.54424297462299,animal,0.802422326603846,0,1,1
13,1,tool,0,0,animals,1,t_208.jpg,208,tbd,107.62777058388,114.193067544531,6.51500593434863,tool,1.27403933705682,0,2,1
14,1,animal,0,0,animals,1,a_052.jpg,52,tbd,116.742667255359,123.074672652632,6.28034626009292,animal,0.931741339480141,0,1,1
15,1,animal,0,0,animals,1,a_061.jpg,61,tbd,125.640937902221,132.489487120582,6.8025622293655,animal,1.00218652467265,0,1,1
16,1,tool,0,0,animals,1,t_235.jpg,235,tbd,135.055712920173,142.903943651978,7.81999764728207,tool,0.907096958746479,0,2,1
17,1,tool,0,0,animals,1,t_222.jpg,222,tbd,145.453738367667,151.369079958131,5.8647459200977,tool,1.00412951718135,0,2,1
18,1,tool,0,0,animals,1,t_282.jpg,282,tbd,153.918712062858,161.90026453889,7.93292811625803,tool,0.797244755112843,0,2,1
19,1,animal,0,0,animals,1,a_156.jpg,156,tbd,164.466649742128,171.331852311445,6.8023207225474,animal,0.964849508483894,0,1,1
20,1,animal,0,0,animals,1,a_002.jpg,2,tbd,173.898136804934,180.929975838684,6.97667293118172,animal,0.802989059478932,0,1,1
21,1,tool,0,0,animals,1,t_201.jpg,201,tbd,183.496280217538,187.978593629477,4.43093056218968,tool,1.08266034799635,0,2,1
22,1,tool,0,0,animals,1,t_232.jpg,232,tbd,190.544905385161,197.710097274112,7.11570236311063,tool,0.859311145928586,0,2,1
23,1,tool,0,0,animals,1,t_272.jpg,272,tbd,200.259628669093,205.358486511512,5.05364702257857,tool,1.28518380069909,0,2,1
24,1,animal,0,0,animals,1,a_161.jpg,161,tbd,207.924816548901,213.873557532732,5.89882096031564,animal,1.0504110984275,0,1,1
25,1,animal,0,0,animals,1,a_097.jpg,97,tbd,216.43983400793,221.721982307201,5.23250453699491,animal,0.795202656514448,0,1,1
26,1,animal,0,0,animals,1,a_090.jpg,90,tbd,224.28827995069,228.90395936783,4.57090093541953,animal,0.916364821337993,0,1,1
27,1,tool,0,0,animals,1,t_259.jpg,259,tbd,231.453523798173,237.202325464439,5.70952690720233,tool,0.880222530651736,0,2,1
28,1,animal,0,0,animals,1,a_094.jpg,94,tbd,239.751930306973,244.450913683771,4.64701561437059,animal,1.00893119114517,0,1,1
29,1,animal,0,0,animals,1,a_069.jpg,69,tbd,247.000523337281,252.24938546147,5.19734028742391,animal,0.768692258872761,0,1,1
30,1,tool,0,0,animals,1,t_339.jpg,339,tbd,254.815664502519,259.131344336611,4.26411295808863,tool,0.752824059067279,0,2,1
31,1,tool,0,0,animals,1,t_251.jpg,251,tbd,261.697632678881,265.813297181998,4.06510806712545,tool,1.07014347350196,0,2,1
32,1,tool,0,0,animals,1,t_295.jpg,295,tbd,268.379657688896,275.428170600431,7.00290776345065,tool,0.762447933819203,0,2,1
33,1,animal,0,0,animals,1,a_008.jpg,8,tbd,277.977773839308,282.51010696021,4.47376961316349,animal,0.916790753006353,0,1,1
34,1,animal,0,0,animals,1,a_037.jpg,37,tbd,285.076395623211,292.524840411337,7.40140655042102,animal,0.844340994821323,0,1,1
35,1,tool,0,0,animals,1,t_211.jpg,211,tbd,295.091108547511,301.673107931065,6.53590353069292,tool,0.909424187808327,0,2,1
36,1,tool,0,0,animals,1,t_240.jpg,240,tbd,304.23931737334,309.737968215533,5.45205044771099,tool,0.806630326229424,0,2,1
37,1,tool,0,0,animals,1,t_262.jpg,262,tbd,312.287713217813,316.770103605357,4.44122924369675,tool,1.42177829097636,0,2,1
38,1,animal,0,0,animals,1,a_045.jpg,45,tbd,319.319703636917,323.585430153504,4.21894425184475,animal,1.97463888078346,0,1,1
39,1,animal,0,0,animals,1,a_151.jpg,151,tbd,326.151698289677,332.933574768851,6.72966052075308,animal,1.64794929035634,0,1,1
40,1,animal,0,0,animals,1,a_158.jpg,158,tbd,335.499876902584,341.481898929795,5.93391833678165,animal,0.789645980177738,0,1,1
41,1,tool,0,0,animals,1,t_301.jpg,301,tbd,344.031539694277,348.713828987195,4.64091547952277,tool,0.723895986033313,0,2,1
42,1,tool,0,0,animals,1,t_332.jpg,332,tbd,351.26345082851,356.32901640194,5.01143212055802,tool,0.763981672707814,0,2,1
43,1,tool,0,0,animals,1,t_304.jpg,304,tbd,358.89527812348,363.477588937494,4.52590359879975,tool,0.640572782474919,0,2,1
44,1,animal,0,0,animals,1,a_065.jpg,65,tbd,366.027179347104,373.375674522176,7.30433872109336,animal,0.904771333345707,0,1,1
45,1,tool,0,0,animals,1,t_264.jpg,264,tbd,375.925299250077,380.740820161622,4.76524928631666,tool,0.883836535207593,0,2,1
46,1,tool,0,0,animals,1,t_279.jpg,279,tbd,383.307167197789,390.47230937333,7.11364148386178,tool,0.823552771063987,0,2,1
47,1,tool,0,0,animals,1,t_344.jpg,344,tbd,393.021883746356,400.020468357458,6.94754120711265,tool,0.599675965384449,0,2,1
48,1,animal,0,0,animals,1,a_027.jpg,27,tbd,402.586738738753,409.101957296545,6.47583963708525,animal,1.03052509288136,0,1,1
49,1,animal,0,0,animals,1,a_026.jpg,26,tbd,411.651605437857,415.86733277231,4.1655794043007,animal,1.4602680168191,0,1,1
50,1,animal,0,0,animals,1,a_135.jpg,135,tbd,418.416967763624,425.582145861114,7.12016348361607,animal,0.852890418451352,0,1,1
51,1,tool,0,0,animals,1,t_273.jpg,273,tbd,428.148405978995,434.030455941935,5.83456469584264,tool,0.783703142902596,0,2,1
52,1,animal,0,0,animals,1,a_145.jpg,145,tbd,436.596754868349,444.011855749688,7.36569992446655,animal,1.21952617727584,0,1,1
53,1,animal,0,0,animals,1,a_010.jpg,10,tbd,446.578151789518,452.560169005752,5.92818579841245,animal,1.16145578244505,0,1,1
54,1,animal,0,0,animals,1,a_018.jpg,18,tbd,455.109752359265,460.82525149313,5.67437665523974,animal,1.042671201556,0,1,1
55,1,tool,0,0,animals,1,t_346.jpg,346,tbd,463.39151129028,469.906753902947,6.46550128712218,tool,1.11035777357938,0,2,1
56,1,tool,0,0,animals,1,t_315.jpg,315,tbd,472.473054753751,479.938193946489,7.42280298817145,tool,0.809251345506709,0,2,1
57,1,tool,0,0,animals,1,t_338.jpg,338,tbd,482.487780828051,489.11968798521,6.58095634261862,tool,0.77797487511998,0,2,1
58,1,animal,0,0,animals,1,a_031.jpg,31,tbd,491.669312713109,496.084986100495,4.36612103750985,animal,0.828930158388175,0,1,1
59,1,animal,0,0,animals,1,a_169.jpg,169,tbd,498.651268990325,506.482949005311,7.77337355942113,animal,0.929185107999729,0,1,1
60,1,tool,0,0,animals,1,t_310.jpg,310,tbd,509.049195331729,513.648192532062,4.54367949920958,tool,0.778136844619439,0,2,1
