trial,phase,object,toShock,seenBefore,shockedCategory,responseSide,filename,num,name,onsetFixationCross,onsetStimulus,interTrialTime,response,reactionTime,wasShocked,buttonPressed,isResponseCorrect
1,3,animal,0,0,animals,1,a_114.jpg,114,tbd,0.0154021262569586,6.08056795629454,5.99492639795412,animal,0.879794292053703,0,1,1
2,3,tool,0,0,animals,1,t_213.jpg,213,tbd,8.64707813747373,16.1454377500413,7.44717143592967,tool,1.16716630767405,0,2,1
3,3,animal,0,0,animals,1,a_070.jpg,70,tbd,18.7117676794369,23.0775129772555,4.31225968687446,animal,1.25931570112152,0,1,1
4,3,tool,0,0,animals,1,t_309.jpg,309,tbd,25.6437624027421,32.4423429039271,6.74057998885492,,2.50141469142181,0,,0
5,3,animal,0,0,animals,1,a_086.jpg,86,tbd,34.9586378894965,42.2904050850193,7.28148505717248,animal,0.775002577476698,0,1,1
6,3,animal,0,0,animals,1,a_047.jpg,47,tbd,44.8401252296935,49.2391584130201,4.35796388175223,animal,0.997612886276329,0,1,1
7,3,tool,0,0,animals,1,t_331.jpg,331,tbd,51.8053882738132,59.2205357098283,7.37807630173957,tool,0.933401556776516,0,2,1
8,3,animal,0,0,animals,1,a_028.jpg,28,tbd,61.7868297171626,67.8520962572657,6.01885047295525,animal,1.46724960196298,0,1,1
9,3,animal,0,0,animals,1,a_133.jpg,133,tbd,70.4184858429471,77.1503407909404,6.67921452309513,animal,1.12525905138682,0,1,1
10,3,animal,0,0,animals,1,a_123.jpg,123,tbd,79.7000378428602,86.9152142089661,7.15195678349611,animal,2.11278030393805,0,1,1
11,3,tool,0,0,animals,1,t_259.jpg,259,tbd,89.4815123858243,94.3304424696216,4.80220603973654,tool,2.47278993875079,0,2,1
12,3,animal,0,0,animals,1,a_065.jpg,65,tbd,96.8799547795024,102.578848347883,5.64206877912677,animal,0.851525552683597,0,1,1
13,3,animal,0,0,animals,1,a_082.jpg,82,tbd,105.14514973207,112.560280810714,7.36585065153033,animal,0.712402288369049,0,1,1
14,3,animal,0,0,animals,1,a_053.jpg,53,tbd,115.109885170885,120.208734029125,5.04759200383922,animal,1.28714471594867,0,1,1
15,3,tool,0,0,animals,1,t_327.jpg,327,tbd,122.758307278222,127.507373705492,4.69714056128541,tool,0.994793325044157,0,2,1
16,3,tool,0,0,animals,1,t_191.jpg,191,tbd,130.073683107996,134.822688596054,4.70706946722665,tool,1.23370711882671,0,2,1
17,3,animal,0,0,animals,1,a_150.jpg,150,tbd,137.388947964253,143.45431745956,6.0217604044982,animal,0.926341588419746,0,1,1
18,3,tool,0,0,animals,1,t_234.jpg,234,tbd,146.003948119811,150.936240162337,4.89192314203125,tool,1.13358719686585,0,2,1
19,3,animal,0,0,animals,1,a_099.jpg,99,tbd,153.502495361012,158.801424338282,5.25510185204117,,2.5013066044994,0,,0
20,3,tool,0,0,animals,1,t_281.jpg,281,tbd,161.317652611448,167.066408248724,5.69208486882624,tool,0.776986950739229,0,2,1
21,3,tool,0,0,animals,1,t_250.jpg,250,tbd,169.616073227375,176.464617469726,6.79391532523615,tool,2.12303637372315,0,2,1
22,3,animal,0,0,animals,1,a_048.jpg,48,tbd,179.014247488511,183.746585780693,4.67834380691273,animal,0.843335642999591,0,1,1
23,3,tool,0,0,animals,1,t_341.jpg,341,tbd,186.312872411174,193.877917485344,7.51003414798182,tool,1.45426313463759,0,2,1
24,3,animal,0,0,animals,1,a_071.jpg,71,tbd,196.427568993222,201.659790699065,5.18966801707109,animal,1.02369166271819,0,1,1
25,3,tool,0,0,animals,1,t_227.jpg,227,tbd,204.209397304363,208.341822066082,4.08449997889883,tool,1.48488573134455,0,2,1
26,3,tool,0,0,animals,1,t_189.jpg,189,tbd,210.908125695398,216.623558808034,5.65978712016676,tool,1.96542928347844,0,2,1
27,3,tool,0,0,animals,1,t_348.jpg,348,tbd,219.189870134935,224.93847021685,5.68789143788438,tool,1.27089318966318,0,2,1
28,3,animal,0,0,animals,1,a_073.jpg,73,tbd,227.48824873488,234.603448225811,7.07062078895437,,2.50066353542206,0,,0
29,3,tool,0,0,animals,1,t_231.jpg,231,tbd,237.119686762424,244.801348645364,7.64170592161988,tool,0.827486315527494,0,2,1
30,3,animal,0,0,animals,1,a_085.jpg,85,tbd,247.351111126754,252.53330719002,5.14131536718195,animal,0.681771031875542,0,1,1
31,3,tool,0,0,animals,1,t_206.jpg,206,tbd,255.099619158384,262.314795845221,7.16401756196344,tool,0.968616083660891,0,2,1
32,3,tool,0,0,animals,1,t_244.jpg,244,tbd,264.881092097683,270.246573753218,5.3150376390074,tool,2.17110682971907,0,2,1
33,3,animal,0,0,animals,1,a_031.jpg,31,tbd,272.796158548692,277.311876215386,4.46589570946267,,2.50457294639273,0,,0
34,3,animal,0,0,animals,1,a_091.jpg,91,tbd,279.828188841253,285.243668556352,5.36714021526219,animal,0.804387466669141,0,1,1
35,3,tool,0,0,animals,1,t_290.jpg,290,tbd,287.809992712562,294.725123951575,6.86225799096717,tool,1.44623327056979,0,2,1
36,3,tool,0,0,animals,1,t_313.jpg,313,tbd,297.274822927891,304.789903940164,7.470953651879,tool,0.71673282138363,0,2,1
37,3,tool,0,0,animals,1,t_240.jpg,240,tbd,307.339576295664,314.121457206969,6.72887973450236,tool,0.944548942759866,0,2,1
38,3,animal,0,0,animals,1,a_104.jpg,104,tbd,316.671085301357,321.686679646329,4.97236245210871,animal,0.796576663044107,0,1,1
39,3,animal,0,0,animals,1,a_176.jpg,176,tbd,324.25298038905,329.668463632206,5.37316612494044,animal,0.766969506086753,0,1,1
40,3,animal,0,0,animals,1,a_061.jpg,61,tbd,332.218123479135,338.999846269213,6.72034008748495,animal,0.767949023775145,0,1,1
41,3,tool,0,0,animals,1,t_238.jpg,238,tbd,341.566306416091,347.814967276852,6.18726211369085,tool,0.922096049573156,0,2,1
42,3,tool,0,0,animals,1,t_291.jpg,291,tbd,350.364626161583,355.563498401236,5.14975306398326,tool,1.33182566869436,0,2,1
43,3,tool,0,0,animals,1,t_294.jpg,294,tbd,358.129779899995,362.278880196642,4.10760330949622,tool,0.785639998452098,0,2,1
44,3,animal,0,0,animals,1,a_014.jpg,14,tbd,364.845151431953,370.110697907567,5.21259309002789,animal,0.68306999934066,0,1,1
45,3,animal,0,0,animals,1,a_021.jpg,21,tbd,372.676965614817,377.809193767385,5.08281804575791,animal,0.608808510456583,0,1,1
46,3,animal,0,0,animals,1,a_009.jpg,9,tbd,380.375496113771,386.790827008896,6.35858524313329,animal,1.60148233395012,0,1,1
47,3,tool,0,0,animals,1,t_328.jpg,328,tbd,389.357117488169,396.422303203632,7.01122862574868,tool,1.21322288300144,0,2,1
48,3,animal,0,0,animals,1,a_017.jpg,17,tbd,398.971921034576,405.570565746446,6.54942001734167,animal,0.605297128775419,0,1,1
49,3,tool,0,0,animals,1,t_305.jpg,305,tbd,408.120144447999,415.801902871481,7.63103320991707,tool,1.63131528673694,0,2,1
50,3,tool,0,0,animals,1,t_333.jpg,333,tbd,418.368148127443,425.216735347978,6.81204611760902,,2.50534206342491,0,,0
51,3,tool,0,0,animals,1,t_236.jpg,236,tbd,427.733057595826,433.615097879214,5.83220818482368,tool,0.927582182532205,0,2,1
52,3,animal,0,0,animals,1,a_081.jpg,81,tbd,436.181435826926,443.413080534629,7.18980281532039,animal,1.65409083702616,0,1,1
53,3,animal,0,0,animals,1,a_032.jpg,32,tbd,445.96288086248,453.711244564391,7.69830616494576,,2.50572662194463,0,,0
54,3,animal,0,0,animals,1,a_040.jpg,40,tbd,456.227543719484,462.326265888307,6.05238292052985,animal,1.87736217593192,0,1,1
55,3,tool,0,0,animals,1,t_215.jpg,215,tbd,464.875898152219,472.174419157487,7.25198730248683,tool,1.23159381101868,0,2,1
56,3,animal,0,0,animals,1,a_169.jpg,169,tbd,474.740677884223,481.905797496675,7.12136549379814,animal,1.20143659746827,0,1,1
57,3,tool,0,0,animals,1,t_316.jpg,316,tbd,484.47214474564,492.237225036261,7.71937969700645,tool,1.607458225757,0,2,1
58,3,tool,0,0,animals,1,t_242.jpg,242,tbd,494.786808869536,499.885832322896,5.05405049763757,tool,1.15300776650838,0,2,1
59,3,tool,0,0,animals,1,t_300.jpg,300,tbd,502.452008504799,506.901005750024,4.40814958766211,tool,1.60607041533149,0,2,1
60,3,animal,0,0,animals,1,a_036.jpg,36,tbd,509.450688368976,517.249051413382,7.7457018938736,animal,1.05611934310582,0,1,1
