trial,phase,object,toShock,seenBefore,shockedCategory,responseSide,filename,num,name,onsetFixationCross,onsetStimulus,interTrialTime,response,reactionTime,wasShocked,buttonPressed,isResponseCorrect
1,3,animal,0,0,animals,2,a_045.jpg,45,tbd,0.0154992936259077,7.86381998527941,7.7610490137649,animal,1.96503768348703,0,2,1
2,3,animal,0,0,animals,2,a_010.jpg,10,tbd,10.4301377268348,16.5121721728865,6.02564599941413,animal,0.953004754501308,0,2,1
3,3,animal,0,0,animals,2,a_016.jpg,16,tbd,19.0784719534095,26.2269894787241,7.10652424406962,animal,0.707403683769371,0,2,1
4,3,tool,0,0,animals,2,t_249.jpg,249,tbd,28.7766057060035,33.5420734417385,4.70984186710373,tool,0.915645808734553,0,1,1
5,3,animal,0,0,animals,2,a_145.jpg,145,tbd,36.1085432105938,42.757087196358,6.60324602417893,animal,0.747820174430672,0,2,1
6,3,tool,0,0,animals,2,t_330.jpg,330,tbd,45.3234232196774,51.7887521743687,6.41604214537657,tool,0.937589699115051,0,1,1
7,3,animal,0,0,animals,2,a_009.jpg,9,tbd,54.3383042551068,59.1040000317953,4.71823075068425,animal,1.04245165415341,0,2,1
8,3,tool,0,0,animals,2,t_195.jpg,195,tbd,61.6536008639014,69.0685555395612,7.35699892112986,tool,0.870263734293985,0,1,1
9,3,tool,0,0,animals,2,t_231.jpg,231,tbd,71.6350201766945,77.1505620818643,5.46598426443344,tool,0.703685108757782,0,1,1
10,3,tool,0,0,animals,2,t_198.jpg,198,tbd,79.7334629873258,86.2654119741492,6.4808654915616,tool,0.95287678215027,0,1,1
11,3,animal,0,0,animals,2,a_119.jpg,119,tbd,88.8317079058797,94.2638772681421,5.38240426277762,animal,1.36866953237404,0,2,1
12,3,tool,0,0,animals,2,t_269.jpg,269,tbd,96.8301828218537,101.429133191996,4.55557662004683,tool,0.760619333854265,0,1,1
13,3,tool,0,0,animals,2,t_261.jpg,261,tbd,103.978788227931,110.260809459796,6.23615760820734,tool,0.91730111023935,0,1,1
14,3,animal,0,0,animals,2,a_031.jpg,31,tbd,112.82707363899,118.292468664615,5.41433491782814,animal,0.714890868090151,0,2,1
15,3,animal,0,0,animals,2,a_077.jpg,77,tbd,120.84222537282,125.007794331796,4.12241333318727,animal,0.795776449584082,0,2,1
16,3,tool,0,0,animals,2,t_202.jpg,202,tbd,127.574254478674,134.372811245637,6.74297273101164,tool,1.19203529498918,0,1,1
17,3,tool,0,0,animals,2,t_344.jpg,344,tbd,136.92246114985,143.6544392592,6.68956285781498,tool,0.738636314086762,0,1,1
18,3,tool,0,0,animals,2,t_247.jpg,247,tbd,146.204019564415,153.36917958919,7.10042299061713,tool,0.85115287591907,0,1,1
19,3,animal,0,0,animals,2,a_029.jpg,29,tbd,155.935439598856,161.051018195849,5.05478986196701,animal,0.743675024921686,0,2,1
20,3,animal,0,0,animals,2,a_174.jpg,174,tbd,163.617335616669,171.515682913101,7.8523103041364,animal,0.899342965218239,0,2,1
21,3,tool,0,0,animals,2,t_227.jpg,227,tbd,174.081964091129,181.380466814629,7.25694949337148,tool,0.878955911401135,0,1,1
22,3,animal,0,0,animals,2,a_036.jpg,36,tbd,183.930081758979,188.06247252303,4.08268445538913,animal,1.06307893676785,0,2,1
23,3,tool,0,0,animals,2,t_275.jpg,275,tbd,190.62878513286,197.42726460324,6.7622884990598,tool,0.800579742612172,0,1,1
24,3,tool,0,0,animals,2,t_301.jpg,301,tbd,199.993659320648,204.325860788256,4.27958642089157,tool,0.622183078998205,0,1,1
25,3,tool,0,0,animals,2,t_326.jpg,326,tbd,206.875669134424,212.624450109586,5.69510955523772,tool,1.08588078714092,0,1,1
26,3,animal,0,0,animals,2,a_125.jpg,125,tbd,215.190713326581,222.655663495945,7.42505472979658,animal,0.979999543556914,0,2,1
27,3,animal,0,0,animals,2,a_091.jpg,91,tbd,225.222133585536,231.720740162287,6.44429977092171,animal,0.868182820489892,0,2,1
28,3,animal,0,0,animals,2,a_137.jpg,137,tbd,234.287046357465,239.0526827986,4.71592469832047,animal,0.912386843698187,0,2,1
29,3,tool,0,0,animals,2,t_292.jpg,292,tbd,241.602306402732,247.034500140682,5.38506023939698,tool,0.912898412363575,0,1,1
30,3,tool,0,0,animals,2,t_273.jpg,273,tbd,249.584145875371,257.582442463961,7.93709823250819,tool,1.99024406696481,0,1,1
31,3,animal,0,0,animals,2,a_040.jpg,40,tbd,260.13208338766,265.047519643478,4.88025169395644,animal,2.10840135492253,0,2,1
32,3,animal,0,0,animals,2,a_046.jpg,46,tbd,267.59731195301,275.129052463573,7.48391118801442,animal,0.946250123681239,0,2,1
33,3,animal,0,0,animals,2,a_042.jpg,42,tbd,277.695346791639,283.660794257066,5.92045202852478,animal,0.798684212306398,0,2,1
34,3,tool,0,0,animals,2,t_291.jpg,291,tbd,286.227056832595,294.241898417898,7.95616848496101,tool,1.18699465975806,0,1,1
35,3,animal,0,0,animals,2,a_025.jpg,25,tbd,296.808349263527,301.473857443652,4.6070763673246,animal,1.07919928338015,0,2,1
36,3,tool,0,0,animals,2,t_213.jpg,213,tbd,304.040276857475,310.57226978468,6.48303027082897,tool,1.23005398793248,0,1,1
37,3,tool,0,0,animals,2,t_340.jpg,340,tbd,313.121878635106,320.720273816929,7.55268533420495,tool,0.680366878728819,0,1,1
38,3,animal,0,0,animals,2,a_069.jpg,69,tbd,323.286603425597,331.118311766666,7.78516727430491,animal,0.89371474766449,0,2,1
39,3,animal,0,0,animals,2,a_105.jpg,105,tbd,333.68459775568,339.516667562515,5.78628522332338,animal,0.900652196127339,0,2,1
40,3,tool,0,0,animals,2,t_270.jpg,270,tbd,342.082991397991,347.215071692783,5.09356251054914,tool,0.615496443511802,0,1,1
41,3,animal,0,0,animals,2,a_043.jpg,43,tbd,349.781503935912,355.080343108024,5.24573541572603,animal,0.6343616206359,0,2,1
42,3,animal,0,0,animals,2,a_006.jpg,6,tbd,357.646657642254,362.162339066152,4.47652553481767,animal,0.71471446509895,0,2,1
43,3,tool,0,0,animals,2,t_264.jpg,264,tbd,364.728612546591,369.79418025471,5.01565019504222,tool,1.03906952775287,0,1,1
44,3,tool,0,0,animals,2,t_212.jpg,212,tbd,372.343825027201,379.475660923668,7.08426481646289,tool,0.767884891876747,0,1,1
45,3,animal,0,0,animals,2,a_150.jpg,150,tbd,382.041954931003,386.157692932149,4.06318763310931,animal,1.05613090412953,0,2,1
46,3,animal,0,0,animals,2,a_131.jpg,131,tbd,388.707336742442,394.256138629378,5.48957931954402,animal,0.84980098755841,0,2,1
47,3,animal,0,0,animals,2,a_153.jpg,153,tbd,396.805771214025,401.638021593371,4.78727677693154,animal,0.873144876204606,0,2,1
48,3,tool,0,0,animals,2,t_226.jpg,226,tbd,404.187684647626,412.136057265903,7.88814550602636,tool,0.922519752122753,0,1,1
49,3,tool,0,0,animals,2,t_190.jpg,190,tbd,414.685652324824,420.417644546415,5.69653196221627,tool,0.9161519249501,0,1,1
50,3,tool,0,0,animals,2,t_267.jpg,267,tbd,422.984062356572,428.066290845913,5.03038698019461,tool,1.24473584835141,0,1,1
51,3,animal,0,0,animals,2,a_123.jpg,123,tbd,430.615945881851,434.998310265637,4.32120001211121,animal,0.927978302068368,0,2,1
52,3,animal,0,0,animals,2,a_012.jpg,12,tbd,437.564599461981,443.1633731084,5.53966211519943,animal,0.869163621107873,0,2,1
53,3,animal,0,0,animals,2,a_028.jpg,28,tbd,445.729687642626,452.878188810577,7.08769956732533,animal,0.903657461596595,0,2,1
54,3,tool,0,0,animals,2,t_233.jpg,233,tbd,455.444414181111,461.443217206644,5.94353457380006,tool,0.895954424162483,0,1,1
55,3,tool,0,0,animals,2,t_337.jpg,337,tbd,464.009498705404,468.49185856686,4.4326394314744,tool,0.847402869105281,0,1,1
56,3,tool,0,0,animals,2,t_318.jpg,318,tbd,471.04147158681,475.20729424536,4.1193756434278,tool,0.744242401076917,0,1,1
57,3,animal,0,0,animals,2,a_071.jpg,71,tbd,477.756848571225,483.405475626761,5.60393203716539,animal,0.848328824431519,0,2,1
58,3,animal,0,0,animals,2,a_004.jpg,4,tbd,485.971910115022,493.786967938318,7.7609055255226,animal,0.736239157828095,0,2,1
59,3,tool,0,0,animals,2,t_317.jpg,317,tbd,496.353275737158,500.785635293916,4.37188588010319,tool,0.789645002416364,0,1,1
60,3,tool,0,0,animals,2,t_355.jpg,355,tbd,503.335280707874,510.233807614622,6.85628566155369,tool,0.669832733681687,0,1,1
