trial,phase,object,toShock,seenBefore,shockedCategory,responseSide,filename,num,name,onsetFixationCross,onsetStimulus,interTrialTime,response,reactionTime,wasShocked,buttonPressed,isResponseCorrect
1,1,tool,0,0,animals,1,t_330.jpg,330,tbd,0.0228832166294524,5.43843573805407,5.24186918959731,tool,0.889110294306192,0,2,1
2,1,animal,0,0,animals,1,a_020.jpg,20,tbd,8.03812315195682,13.9201643975421,5.84115633163177,animal,1.04765232039335,0,1,1
3,1,animal,0,0,animals,1,a_169.jpg,169,tbd,16.4699345765202,21.11893528566,4.5935629875514,animal,0.975109958820212,0,1,1
4,1,tool,0,0,animals,1,t_214.jpg,214,tbd,23.6685739642289,29.1340748316497,5.40903631711834,tool,0.952275714445932,0,2,1
5,1,animal,0,0,animals,1,a_174.jpg,174,tbd,31.7003441425659,38.9822101397986,7.22916800668436,animal,0.788379055807127,0,1,1
6,1,tool,0,0,animals,1,t_246.jpg,246,tbd,41.5317946145396,46.9804509208989,5.39529556141827,tool,0.904424318889141,0,2,1
7,1,tool,0,0,animals,1,t_287.jpg,287,tbd,49.5302557390096,57.1953556263998,7.61492886320805,tool,0.991954199150314,0,2,1
8,1,tool,0,0,animals,1,t_271.jpg,271,tbd,59.7449570999743,65.343812533235,5.53580261399576,tool,0.868614832834282,0,2,1
9,1,animal,0,0,animals,1,a_070.jpg,70,tbd,67.9100722221692,73.7588207712543,5.78445703045468,animal,0.678788217728652,0,1,1
10,1,animal,0,0,animals,1,a_042.jpg,42,tbd,76.3251013078143,81.5072213574258,5.14164265669139,animal,0.645720354857076,0,1,1
11,1,tool,0,0,animals,1,t_208.jpg,208,tbd,84.0569379740418,90.838711119156,6.73082566959376,tool,0.651511183890761,0,2,1
12,1,tool,0,0,animals,1,t_298.jpg,298,tbd,93.4051658135768,100.703592523427,7.24258467882421,tool,0.547860957020021,0,2,1
13,1,tool,0,0,animals,1,t_310.jpg,310,tbd,103.269919886962,108.935430312218,5.6015844008171,tool,0.611356090382287,0,2,1
14,1,animal,0,0,animals,1,a_087.jpg,87,tbd,111.501664342536,115.800736045861,4.2446505171261,animal,1.01226844664234,0,1,1
15,1,animal,0,0,animals,1,a_011.jpg,11,tbd,118.350345537753,125.148987940349,6.73673948050313,animal,0.620435071132306,0,1,1
16,1,tool,0,0,animals,1,t_325.jpg,325,tbd,127.698460800108,134.913712859131,7.17321926394163,tool,0.520921013257976,0,2,1
17,1,animal,0,0,animals,1,a_000.jpg,0,tbd,137.463339029124,144.745132861498,7.2346995654046,animal,0.722698129043238,0,1,1
18,1,tool,0,0,animals,1,t_272.jpg,272,tbd,147.294763842481,153.793439376766,6.44721493740793,tool,0.808752318116603,0,2,1
19,1,animal,0,0,animals,1,a_104.jpg,104,tbd,156.343042774737,162.025119365066,5.63970489978146,animal,0.993335594921518,0,1,1
20,1,animal,0,0,animals,1,a_088.jpg,88,tbd,164.591405033349,171.856541933294,7.21251502327984,animal,0.612190636887135,0,1,1
21,1,animal,0,0,animals,1,a_064.jpg,64,tbd,174.422871541959,181.021494444006,6.54615786342816,animal,0.473538208187165,0,1,1
22,1,tool,0,0,animals,1,t_249.jpg,249,tbd,183.571109388355,188.969957508909,5.33925983022567,tool,0.610333273778451,0,2,1
23,1,animal,0,0,animals,1,a_028.jpg,28,tbd,191.536249271114,196.968248003578,5.38893143891159,animal,0.82433672037223,0,1,1
24,1,tool,0,0,animals,1,t_359.jpg,359,tbd,199.534712640712,204.183695388821,4.60216433753021,tool,0.607008237800073,0,2,1
25,1,tool,0,0,animals,1,t_210.jpg,210,tbd,206.73333887838,212.332149409061,5.54931366570072,tool,0.680800494735195,0,2,1
26,1,tool,0,0,animals,1,t_336.jpg,336,tbd,214.881767240003,220.680519653918,5.74504289271174,tool,0.581781327427962,0,2,1
27,1,animal,0,0,animals,1,a_134.jpg,134,tbd,223.246820717372,227.94581724095,4.6464141637244,animal,0.640628081660907,0,1,1
28,1,animal,0,0,animals,1,a_125.jpg,125,tbd,230.495435392624,235.644316628831,5.0933571383171,animal,0.579454411635197,0,1,1
29,1,animal,0,0,animals,1,a_118.jpg,118,tbd,238.210608711769,244.525935148708,6.25956821720689,animal,0.53810266439541,0,1,1
30,1,tool,0,0,animals,1,t_261.jpg,261,tbd,247.075570299216,253.840825068432,6.70795282660584,tool,0.613373178379334,0,2,1
31,1,animal,0,0,animals,1,a_095.jpg,95,tbd,256.390429107867,263.938704351696,7.48614984212005,animal,0.693857843988553,0,1,1
32,1,animal,0,0,animals,1,a_015.jpg,15,tbd,266.505096823971,273.920119815695,7.37103959712403,animal,0.576828252226733,0,1,1
33,1,tool,0,0,animals,1,t_183.jpg,183,tbd,276.486588622355,284.16836147881,7.62842942436331,tool,0.674917294682018,0,2,1
34,1,tool,0,0,animals,1,t_345.jpg,345,tbd,286.717935690104,291.150274719971,4.37726679922933,tool,0.80316066409523,0,2,1
35,1,animal,0,0,animals,1,a_163.jpg,163,tbd,293.699923341253,301.264998243566,7.50241929788411,animal,0.629817785756131,0,1,1
36,1,tool,0,0,animals,1,t_305.jpg,305,tbd,303.831312136328,309.163492756311,5.27952534380617,tool,0.584568173922889,0,2,1
37,1,animal,0,0,animals,1,a_033.jpg,33,tbd,311.746456846115,316.761886334472,4.97227870734102,animal,0.663422875912147,0,1,1
38,1,animal,0,0,animals,1,a_014.jpg,14,tbd,319.32830638976,324.993751064811,5.62026735999375,animal,0.846815272173444,0,1,1
39,1,animal,0,0,animals,1,a_083.jpg,83,tbd,327.560026148915,334.391995245677,6.78048197996694,animal,0.60678725296475,0,1,1
40,1,tool,0,0,animals,1,t_185.jpg,185,tbd,336.941655413338,341.523942115663,4.53753383257647,tool,1.06814457453856,0,2,1
41,1,animal,0,0,animals,1,a_055.jpg,55,tbd,344.090228425412,350.48886133432,6.34398756581569,animal,0.587464390270725,0,1,1
42,1,tool,0,0,animals,1,t_321.jpg,321,tbd,353.038471146944,359.903728449948,6.82196677253839,tool,0.927857050495732,0,2,1
43,1,tool,0,0,animals,1,t_233.jpg,233,tbd,362.453366166318,367.768912305161,5.26551853454094,tool,0.719011627304099,0,2,1
44,1,animal,0,0,animals,1,a_106.jpg,106,tbd,370.335170069699,375.567394982869,5.17050742810291,animal,0.593665757170129,0,1,1
45,1,tool,0,0,animals,1,t_186.jpg,186,tbd,378.117023077259,382.199495964921,4.03728898261098,tool,0.659765881581734,0,2,1
46,1,animal,0,0,animals,1,a_074.jpg,74,tbd,384.765727750109,391.597607362446,6.7815638156045,animal,0.511031220223231,0,1,1
47,1,tool,0,0,animals,1,t_222.jpg,222,tbd,394.163927028397,399.029442841962,4.82560794799842,tool,0.69536464624889,0,2,1
48,1,tool,0,0,animals,1,t_265.jpg,265,tbd,401.579152402459,406.927989313405,5.30041793114038,tool,0.643003107359618,0,2,1
49,1,tool,0,0,animals,1,t_229.jpg,229,tbd,409.477624463914,416.87609957233,7.35156562632251,tool,0.660338710197721,0,2,1
50,1,animal,0,0,animals,1,a_027.jpg,27,tbd,419.425717403272,425.724377606533,6.25080433725284,animal,1.30728416414877,0,1,1
51,1,tool,0,0,animals,1,t_251.jpg,251,tbd,428.274025265618,435.32255501085,6.99208565273286,tool,0.664456597428398,0,2,1
52,1,animal,0,0,animals,1,a_147.jpg,147,tbd,437.888847093787,442.087913376729,4.15111099949717,animal,0.835325664394986,0,1,1
53,1,animal,0,0,animals,1,a_165.jpg,165,tbd,444.654174348595,449.819772173514,5.10207626488277,animal,0.692702564775573,0,1,1
54,1,tool,0,0,animals,1,t_318.jpg,318,tbd,452.386060407659,460.017806980069,7.57938678015515,tool,0.634910700418004,0,2,1
55,1,animal,0,0,animals,1,a_115.jpg,115,tbd,462.5840852715,470.432455997456,7.7838737520594,animal,0.611586055733824,0,1,1
56,1,tool,0,0,animals,1,t_212.jpg,212,tbd,472.982054584436,480.330588402973,7.3022339794711,tool,0.654876952922677,0,2,1
57,1,tool,0,0,animals,1,t_283.jpg,283,tbd,482.880157803277,486.995920821577,4.06841428263028,tool,0.936723385460937,0,2,1
58,1,animal,0,0,animals,1,a_158.jpg,158,tbd,489.562236318003,496.610756120521,6.9922259137312,animal,0.610097214505913,0,1,1
59,1,animal,0,0,animals,1,a_112.jpg,112,tbd,499.160383894177,504.509259293049,5.29950568598105,animal,0.82192416894668,0,1,1
60,1,tool,0,0,animals,1,t_309.jpg,309,tbd,507.058858842227,512.624161144029,5.52113185241281,tool,0.753295387869002,0,2,1
