trial,phase,object,toShock,seenBefore,shockedCategory,responseSide,filename,num,name,onsetFixationCross,onsetStimulus,interTrialTime,response,reactionTime,wasShocked,buttonPressed,isResponseCorrect
1,1,animal,0,0,animals,2,a_058.jpg,58,tbd,0.0154828926688424,5.78068421113221,5.68252735331212,animal,2.20221309282897,0,2,1
2,1,tool,0,0,animals,2,t_324.jpg,324,tbd,8.36381257019548,16.1122287169828,7.70063270905804,,2.50251480511906,0,,0
3,1,tool,0,0,animals,2,t_190.jpg,190,tbd,18.6284771441951,25.9102335093557,7.22091672281075,tool,0.942161281833251,0,1,1
4,1,animal,0,0,animals,2,a_116.jpg,116,tbd,28.4599037811531,35.8750309624893,7.37116120828696,animal,0.826688896991982,0,2,1
5,1,tool,0,0,animals,2,t_224.jpg,224,tbd,38.4246172025878,45.6397284114864,7.16680101274201,tool,2.36030013363325,0,1,1
6,1,tool,0,0,animals,2,t_349.jpg,349,tbd,48.1893550637751,54.6546786772278,6.42075398363195,tool,2.44160240688325,0,1,1
7,1,animal,0,0,animals,2,a_113.jpg,113,tbd,57.2042347685483,64.5192147661173,7.25665434890543,animal,1.77231236890475,0,2,1
8,1,animal,0,0,animals,2,a_078.jpg,78,tbd,67.0856429473988,74.984002436935,7.84375439261291,animal,0.920731594716926,0,2,1
9,1,animal,0,0,animals,2,a_048.jpg,48,tbd,77.5336390319062,82.3657225273428,4.77622120861078,animal,1.01828854944597,0,2,1
10,1,tool,0,0,animals,2,t_251.jpg,251,tbd,84.9322110061794,91.1641715330907,6.17517647928723,tool,0.762081028352441,0,1,1
11,1,tool,0,0,animals,2,t_266.jpg,266,tbd,93.7138103731832,99.9790455288394,6.225722620032,tool,1.30747530540884,0,1,1
12,1,tool,0,0,animals,2,t_183.jpg,183,tbd,102.528741459171,108.360797050952,5.77314666772877,tool,0.893943764174765,0,1,1
13,1,animal,0,0,animals,2,a_146.jpg,146,tbd,110.927076733466,116.059309272913,5.07392201182952,animal,0.592655160509821,0,2,1
14,1,tool,0,0,animals,2,t_301.jpg,301,tbd,118.608901286181,123.941016052957,5.28964761050484,tool,0.704086967662079,0,1,1
15,1,animal,0,0,animals,2,a_073.jpg,73,tbd,126.490721605239,134.005783645971,7.46037908368955,animal,0.743601751949427,0,2,1
16,1,animal,0,0,animals,2,a_071.jpg,71,tbd,136.555422165333,140.687810259645,4.08392317401215,tool,1.05985569574568,0,1,0
17,1,animal,0,0,animals,2,a_062.jpg,62,tbd,143.237447816811,150.76917860362,7.47701966624936,animal,0.959744433926971,0,2,1
18,1,tool,0,0,animals,2,t_222.jpg,222,tbd,153.318660285191,160.717060347284,7.35726666031916,tool,0.771217070222519,0,1,1
19,1,tool,0,0,animals,2,t_218.jpg,218,tbd,163.266874306874,169.515376570117,6.18996837674684,tool,1.26109397661185,0,1,1
20,1,tool,0,0,animals,2,t_215.jpg,215,tbd,172.081798978228,178.896991781266,6.77526024096523,tool,0.746661852896068,0,1,1
21,1,animal,0,0,animals,2,a_088.jpg,88,tbd,181.44664986526,187.545311419892,6.03659376992204,animal,1.20359320124226,0,2,1
22,1,tool,0,0,animals,2,t_326.jpg,326,tbd,190.111611629233,194.47730604058,4.32417406158694,tool,0.886868423341184,0,1,1
23,1,animal,0,0,animals,2,a_103.jpg,103,tbd,197.043585402362,201.825851891258,4.72177250667108,animal,0.68551275468144,0,2,1
24,1,animal,0,0,animals,2,a_099.jpg,99,tbd,204.392130290846,209.074411886203,4.6322794984901,animal,1.3041781837519,0,2,1
25,1,tool,0,0,animals,2,t_240.jpg,240,tbd,211.6240629141,215.773116226441,4.10516086858794,tool,0.717641729869683,0,1,1
26,1,tool,0,0,animals,2,t_186.jpg,186,tbd,218.339439849195,223.521603254929,5.12850750878186,tool,1.24139175031632,0,1,1
27,1,animal,0,0,animals,2,a_047.jpg,47,tbd,226.071232473071,233.7694537914,7.66045292660325,animal,0.704809255403234,0,2,1
28,1,animal,0,0,animals,2,a_090.jpg,90,tbd,236.319238564408,242.068024835552,5.69823405740845,animal,0.799396876250285,0,2,1
29,1,animal,0,0,animals,2,a_131.jpg,131,tbd,244.634264105875,248.699856620768,4.01947699840588,animal,0.919831621626145,0,2,1
30,1,tool,0,0,animals,2,t_298.jpg,298,tbd,251.266313347168,255.548642539107,4.23545282309164,tool,0.98124628567075,0,1,1
31,1,tool,0,0,animals,2,t_217.jpg,217,tbd,258.11494499357,262.397343784283,4.23826426293854,tool,1.76268977707969,0,1,1
32,1,animal,0,0,animals,2,a_127.jpg,127,tbd,264.946956324379,271.278950496043,6.27359192345231,animal,1.00238699354486,0,2,1
33,1,animal,0,0,animals,2,a_166.jpg,166,tbd,273.84521927368,278.594186437492,4.69866869065918,animal,0.815350069951819,0,2,1
34,1,tool,0,0,animals,2,t_339.jpg,339,tbd,281.160462271226,288.308795220216,7.11080205783873,tool,0.988018855799055,0,1,1
35,1,tool,0,0,animals,2,t_216.jpg,216,tbd,290.858557862736,296.62399042874,5.72134769932281,tool,1.14298774322378,0,1,1
36,1,tool,0,0,animals,2,t_184.jpg,184,tbd,299.173602968836,303.872540160272,4.64687782506698,tool,0.751633835380744,0,1,1
37,1,animal,0,0,animals,2,a_005.jpg,5,tbd,306.438844539126,313.537266827924,7.05395104961132,animal,0.639168310027344,0,2,1
38,1,tool,0,0,animals,2,t_280.jpg,280,tbd,316.086951532648,321.285656995446,5.14091750732178,tool,1.15114459127835,0,1,1
39,1,tool,0,0,animals,2,t_270.jpg,270,tbd,323.852094157214,329.917463442858,6.01688664825773,tool,0.904518929087317,0,1,1
40,1,animal,0,0,animals,2,a_094.jpg,94,tbd,332.467070530515,337.715776458374,5.1990005494766,animal,0.585378720912558,0,2,1
41,1,animal,0,0,animals,2,a_119.jpg,119,tbd,340.282158133562,344.797733665712,4.4793848140929,animal,0.879668638616749,0,2,1
42,1,tool,0,0,animals,2,t_328.jpg,328,tbd,347.364167299433,353.562812143943,6.14908084251659,tool,0.959830710748065,0,1,1
43,1,tool,0,0,animals,2,t_199.jpg,199,tbd,356.129105938651,361.961180132869,5.7838468607386,tool,0.833700091488936,0,1,1
44,1,tool,0,0,animals,2,t_321.jpg,321,tbd,364.52747841782,371.992588744707,7.41638503756679,tool,0.785566605530221,0,1,1
45,1,animal,0,0,animals,2,a_040.jpg,40,tbd,374.558881897951,382.20721372438,7.59115896059423,animal,1.16824151414585,0,2,1
46,1,animal,0,0,animals,2,a_057.jpg,57,tbd,384.773497897138,391.372110219457,6.55230723870425,animal,0.804495547748047,0,2,1
47,1,animal,0,0,animals,2,a_008.jpg,8,tbd,393.92177952906,399.220575406118,5.25552783776953,animal,0.61726810953769,0,2,1
48,1,tool,0,0,animals,2,t_336.jpg,336,tbd,401.770169664508,408.33543070321,6.51332718486117,tool,0.885816102702847,0,1,1
49,1,animal,0,0,animals,2,a_105.jpg,105,tbd,410.901739893038,418.050135384706,7.10641527669509,animal,0.911326458968688,0,2,1
50,1,animal,0,0,animals,2,a_012.jpg,12,tbd,420.616476968434,426.648527364361,5.98372708888171,animal,0.690158873780092,0,2,1
51,1,tool,0,0,animals,2,t_194.jpg,194,tbd,429.19814824348,436.046530039905,6.80092760444122,tool,0.757365310480054,0,1,1
52,1,tool,0,0,animals,2,t_201.jpg,201,tbd,438.596293003157,445.428199133976,6.78268218202589,tool,0.569952489359821,0,1,1
53,1,tool,0,0,animals,2,t_206.jpg,206,tbd,447.99444642259,452.976705149779,4.92029640530139,tool,0.921735164140046,0,1,1
54,1,animal,0,0,animals,2,a_036.jpg,36,tbd,455.526323142313,461.974945936521,6.38779575675277,animal,0.555667100387836,0,2,1
55,1,animal,0,0,animals,2,a_132.jpg,132,tbd,464.524559759544,470.923214803322,6.35276573116336,animal,1.00672585169559,0,2,1
56,1,animal,0,0,animals,2,a_163.jpg,163,tbd,473.472836323905,480.387837938789,6.86496124483379,animal,0.729373773947373,0,2,1
57,1,tool,0,0,animals,2,t_292.jpg,292,tbd,482.954346822735,488.38645879257,5.3834555356703,tool,0.929970270723061,0,1,1
58,1,animal,0,0,animals,2,a_054.jpg,54,tbd,490.952728532402,497.684621224563,6.67221401348445,animal,0.696122237883174,0,2,1
59,1,animal,0,0,animals,2,a_102.jpg,102,tbd,500.234259423192,507.949293496123,7.66383359073215,animal,0.714664377695954,0,2,1
60,1,tool,0,0,animals,2,t_242.jpg,242,tbd,510.515557142053,514.597934507889,4.01852473548947,tool,0.768227209513498,0,1,1
