trial,phase,object,toShock,seenBefore,shockedCategory,responseSide,filename,num,name,onsetFixationCross,onsetStimulus,interTrialTime,response,reactionTime,wasShocked,buttonPressed,isResponseCorrect
1,1,animal,0,0,animals,1,a_174.jpg,174,tbd,0.0322223145758471,5.98083002993008,5.87800431746225,animal,2.46588584354868,0,1,1
2,1,tool,0,0,animals,1,t_312.jpg,312,tbd,8.54721255949153,14.9958797707623,6.38922985733678,tool,1.1800796450043,0,2,1
3,1,tool,0,0,animals,1,t_301.jpg,301,tbd,17.545492790714,21.777724439271,4.16779511796785,tool,1.04433016803887,0,2,1
4,1,tool,0,0,animals,1,t_229.jpg,229,tbd,24.3275138622121,31.6926452776279,7.31394701206515,tool,0.889823280142082,0,2,1
5,1,animal,0,0,animals,1,a_101.jpg,101,tbd,34.2422769000768,41.3574167347251,7.07353311962269,animal,1.31536598394086,0,1,1
6,1,tool,0,0,animals,1,t_307.jpg,307,tbd,43.9070906938923,47.9560765210335,4.00717682938537,tool,2.03190979394276,0,2,1
7,1,animal,0,0,animals,1,a_047.jpg,47,tbd,50.5058197584658,56.6045274943135,6.04494568468251,animal,0.969723250027528,0,1,1
8,1,tool,0,0,animals,1,t_250.jpg,250,tbd,59.1708266333717,64.5862931984302,5.37705600497306,tool,1.06004735363422,0,2,1
9,1,tool,0,0,animals,1,t_199.jpg,199,tbd,67.1359427819098,72.8347051706114,5.64536697319333,tool,1.65899579938014,0,2,1
10,1,animal,0,0,animals,1,a_063.jpg,63,tbd,75.3843707907272,81.8497023112795,6.41538793021829,animal,1.18934625438851,0,1,1
11,1,tool,0,0,animals,1,t_333.jpg,333,tbd,84.3992598444729,88.7650150850041,4.32450031619898,tool,1.37318703497476,0,2,1
12,1,tool,0,0,animals,1,t_286.jpg,286,tbd,91.3146463867215,95.3968909126961,4.02502532484226,tool,2.15261915205701,0,2,1
13,1,animal,0,0,animals,1,a_055.jpg,55,tbd,97.9633545876313,104.811891132398,6.7912211964836,animal,1.22788293065423,0,1,1
14,1,animal,0,0,animals,1,a_013.jpg,13,tbd,107.361544243939,112.393674925837,4.9811950204355,,2.50388593399657,0,,0
15,1,animal,0,0,animals,1,a_011.jpg,11,tbd,114.910068376348,119.575703566627,4.6030476480959,animal,0.611487587821102,0,1,1
16,1,tool,0,0,animals,1,t_342.jpg,342,tbd,122.125352829375,127.690846608604,5.51235011904045,tool,0.619551770283579,0,2,1
17,1,animal,0,0,animals,1,a_042.jpg,42,tbd,130.257147030592,137.088866276576,6.77794233471192,animal,0.844876760718762,0,1,1
18,1,tool,0,0,animals,1,t_348.jpg,348,tbd,139.655345667414,147.170412888177,7.47358360386626,tool,0.699591258897271,0,2,1
19,1,animal,0,0,animals,1,a_158.jpg,158,tbd,149.736729026068,154.019063613789,4.23252764505115,animal,1.09817509569803,0,1,1
20,1,tool,0,0,animals,1,t_203.jpg,203,tbd,156.568730196102,163.583818424859,6.95939178753828,tool,1.07779092847704,0,2,1
21,1,animal,0,0,animals,1,a_025.jpg,25,tbd,166.150237517948,174.048574871666,7.84267976168099,animal,1.96737420367754,0,1,1
22,1,animal,0,0,animals,1,a_086.jpg,86,tbd,176.614897744943,182.696947265433,6.0390343041977,animal,0.833264312312167,0,1,1
23,1,tool,0,0,animals,1,t_202.jpg,202,tbd,185.263180654285,189.312134728889,4.0090546142931,tool,1.28529504748622,0,2,1
24,1,tool,0,0,animals,1,t_253.jpg,253,tbd,191.878598083093,196.360806879444,4.4366952736117,tool,1.46584928001903,0,2,1
25,1,tool,0,0,animals,1,t_287.jpg,287,tbd,198.927259328735,203.309652578466,4.3399276241806,tool,1.95625824950184,0,2,1
26,1,animal,0,0,animals,1,a_106.jpg,106,tbd,205.85922903489,213.874281341583,7.96608802862966,animal,1.15891385217401,0,1,1
27,1,tool,0,0,animals,1,t_225.jpg,225,tbd,216.440546803706,222.455953840774,5.95568744252603,tool,1.21942520915763,0,2,1
28,1,animal,0,0,animals,1,a_035.jpg,35,tbd,225.022235660264,229.10451931563,4.04170534989132,animal,0.847062554119475,0,1,1
29,1,animal,0,0,animals,1,a_116.jpg,116,tbd,231.670950275829,237.58628133132,5.87262541981508,animal,0.882569909963422,0,1,1
30,1,animal,0,0,animals,1,a_059.jpg,59,tbd,240.152659370622,244.351782102522,4.15059677581707,animal,0.955349293008112,0,1,1
31,1,tool,0,0,animals,1,t_263.jpg,263,tbd,246.901343805239,254.71636666867,7.76323879068369,tool,0.446006830341503,0,2,1
32,1,animal,0,0,animals,1,a_078.jpg,78,tbd,257.266015931418,262.165012070118,4.85055512776451,animal,0.577710584933811,0,1,1
33,1,animal,0,0,animals,1,a_069.jpg,69,tbd,264.714610336365,271.129886706927,6.35838434148063,animal,0.709973055903902,0,1,1
34,1,tool,0,0,animals,1,t_243.jpg,243,tbd,273.679541422132,280.627983318675,6.8957934111911,tool,0.750282101111225,0,2,1
35,1,animal,0,0,animals,1,a_127.jpg,127,tbd,283.1943164554,287.47665713704,4.24054939683947,animal,1.53285258773576,0,1,1
36,1,tool,0,0,animals,1,t_198.jpg,198,tbd,290.04305858983,294.142131319501,4.03879246067787,tool,0.705545661608994,0,2,1
37,1,animal,0,0,animals,1,a_137.jpg,137,tbd,296.691748508978,301.124106462074,4.37835979134575,animal,0.853742133485866,0,1,1
38,1,animal,0,0,animals,1,a_178.jpg,178,tbd,303.673647637899,310.00572851001,6.27922596549001,animal,0.628459159035629,0,1,1
39,1,animal,0,0,animals,1,a_090.jpg,90,tbd,312.572044006436,317.637642504893,5.0200145105328,animal,0.948787101815469,0,1,1
40,1,tool,0,0,animals,1,t_219.jpg,219,tbd,320.203896420639,328.202256835039,7.94302670294009,tool,1.13551159017334,0,2,1
41,1,tool,0,0,animals,1,t_194.jpg,194,tbd,330.768540578925,334.934120763546,4.11633707087027,tool,1.05478477136967,0,2,1
42,1,tool,0,0,animals,1,t_295.jpg,295,tbd,337.4839201292,342.716128364269,5.19047400112583,tool,0.731080475381532,0,2,1
43,1,animal,0,0,animals,1,a_018.jpg,18,tbd,345.282404731304,352.764184387293,7.42225406074107,animal,0.655345540435519,0,1,1
44,1,animal,0,0,animals,1,a_041.jpg,41,tbd,355.31378265354,359.612881298412,4.24447204046857,animal,1.7520336224261,0,1,1
45,1,tool,0,0,animals,1,t_261.jpg,261,tbd,362.179161834973,367.911252200771,5.6845538750991,tool,0.780750746122067,0,2,1
46,1,tool,0,0,animals,1,t_228.jpg,228,tbd,370.477560641077,376.826257712562,6.30621381317294,tool,1.37399816799189,0,2,1
47,1,tool,0,0,animals,1,t_322.jpg,322,tbd,379.375861110533,387.2908791309,7.86952782712854,tool,1.42475027015462,0,2,1
48,1,animal,0,0,animals,1,a_160.jpg,160,tbd,389.840512357014,397.68886897073,7.79412963401309,animal,1.26908746158006,0,1,1
49,1,tool,0,0,animals,1,t_231.jpg,231,tbd,400.25515912927,404.837525694042,4.53178551527131,,2.50062664822144,0,,0
50,1,tool,0,0,animals,1,t_354.jpg,354,tbd,407.353802077112,415.218816585457,7.82208359622911,,2.50027576663888,0,,0
51,1,animal,0,0,animals,1,a_140.jpg,140,tbd,417.73516320899,425.666797428734,7.87808278464486,animal,0.834017071976632,0,1,1
52,1,tool,0,0,animals,1,t_220.jpg,220,tbd,428.233080210422,434.048561400892,5.76202296306865,tool,1.11852590672061,0,2,1
53,1,tool,0,0,animals,1,t_223.jpg,223,tbd,436.614836805729,444.229942161614,7.55574442156519,tool,1.13266412519624,0,2,1
54,1,tool,0,0,animals,1,t_252.jpg,252,tbd,446.796198963953,451.17840105699,4.32879101902085,tool,1.18023327597075,0,2,1
55,1,animal,0,0,animals,1,a_094.jpg,94,tbd,453.744863769729,458.927071379369,5.12330863327785,animal,0.694719008335596,0,1,1
56,1,animal,0,0,animals,1,a_073.jpg,73,tbd,461.476715189659,467.89199957854,6.3694383973928,animal,1.00622070773898,0,1,1
57,1,animal,0,0,animals,1,a_132.jpg,132,tbd,470.44166680232,474.857452681856,4.35138070148122,animal,0.931842607446015,0,1,1
58,1,tool,0,0,animals,1,t_266.jpg,266,tbd,477.423611475286,481.939386553137,4.45939545301003,tool,1.04920273933021,0,2,1
59,1,animal,0,0,animals,1,a_131.jpg,131,tbd,484.505573435747,492.370634771065,7.80847536255886,animal,1.77923496334552,0,1,1
60,1,animal,0,0,animals,1,a_173.jpg,173,tbd,494.920267034979,501.752170060803,6.77830600942281,animal,1.02803277697603,0,1,1
