trial,phase,object,toShock,seenBefore,shockedCategory,responseSide,filename,num,name,onsetFixationCross,onsetStimulus,interTrialTime,response,reactionTime,wasShocked,buttonPressed,isResponseCorrect
1,3,tool,0,0,animals,1,t_284.jpg,284,tbd,0.0154281099239597,6.14746991679021,6.05260800855267,tool,0.80210031741899,0,2,1
2,3,animal,0,0,animals,1,a_040.jpg,40,tbd,8.71375943386647,14.5792806998879,5.82341237462485,animal,0.870606578602747,0,1,1
3,3,tool,0,0,animals,1,t_313.jpg,313,tbd,17.1455118436115,22.0777868873029,4.8862237784211,tool,1.01129020753888,0,2,1
4,3,tool,0,0,animals,1,t_248.jpg,248,tbd,24.6274050389784,32.0425322688325,7.36134649631878,tool,0.617873695385242,0,2,1
5,3,animal,0,0,animals,1,a_123.jpg,123,tbd,34.608811522462,41.2407357807915,6.58736572622631,animal,0.800929001570694,0,1,1
6,3,animal,0,0,animals,1,a_103.jpg,103,tbd,43.7903917789263,50.3890053797249,6.55614680597854,animal,0.783033720158528,0,1,1
7,3,tool,0,0,animals,1,t_199.jpg,199,tbd,52.9552564088763,60.0871105871092,7.0846254149613,tool,0.600213511046604,0,2,1
8,3,tool,0,0,animals,1,t_327.jpg,327,tbd,62.6533924065998,70.6682426516882,7.96132597914446,tool,0.687429073254862,0,2,1
9,3,animal,0,0,animals,1,a_038.jpg,38,tbd,73.2180468283332,78.5001225847573,5.2274090617515,animal,0.800799104824364,0,1,1
10,3,tool,0,0,animals,1,t_250.jpg,250,tbd,81.0665173021616,87.8816123304514,6.77443897147894,tool,0.957607249895773,0,2,1
11,3,tool,0,0,animals,1,t_354.jpg,354,tbd,90.431396942402,96.3801586094551,5.88669680959427,tool,1.13221926755796,0,2,1
12,3,animal,0,0,animals,1,a_057.jpg,57,tbd,98.9297661769506,104.528443282826,5.54752848426258,animal,0.572310406963879,0,1,1
13,3,animal,0,0,animals,1,a_136.jpg,136,tbd,107.07820351909,114.693314968895,7.55825345125505,animal,1.30874702168148,0,1,1
14,3,tool,0,0,animals,1,t_275.jpg,275,tbd,117.25957946882,122.541763632899,5.22386007688737,tool,0.645556135365041,0,2,1
15,3,animal,0,0,animals,1,a_079.jpg,79,tbd,125.091383067505,131.973316867633,6.83063361331918,animal,0.859276054245129,0,1,1
16,3,animal,0,0,animals,1,a_017.jpg,17,tbd,134.539573990705,141.971353983463,7.37781267647673,animal,0.830573363523399,0,1,1
17,3,tool,0,0,animals,1,t_357.jpg,357,tbd,144.537686157989,151.886138510419,7.27832813882919,tool,0.875078234009379,0,2,1
18,3,tool,0,0,animals,1,t_292.jpg,292,tbd,154.435758265758,162.467395660754,7.98484388289273,tool,1.68417491920536,0,2,1
19,3,tool,0,0,animals,1,t_254.jpg,254,tbd,165.033704742526,169.432765188132,4.33784560591617,tool,0.881000242719892,0,2,1
20,3,animal,0,0,animals,1,a_093.jpg,93,tbd,171.999036102711,179.264037653454,7.22791614136445,animal,0.733978294018016,0,1,1
21,3,animal,0,0,animals,1,a_176.jpg,176,tbd,181.830454501414,186.94606645461,5.06803611956041,animal,0.856187719004993,0,1,1
22,3,tool,0,0,animals,1,t_255.jpg,255,tbd,189.495649325687,196.210910846326,6.66630057568806,tool,0.524695070680536,0,2,1
23,3,animal,0,0,animals,1,a_159.jpg,159,tbd,198.76055497735,203.076155640753,4.26843186732906,animal,0.69755332189834,0,1,1
24,3,tool,0,0,animals,1,t_302.jpg,302,tbd,205.625842429227,210.708125122394,5.02342174698578,tool,0.86393373462397,0,2,1
25,3,tool,0,0,animals,1,t_262.jpg,262,tbd,213.25775995217,218.656598450743,5.33710177971491,tool,0.524593719145741,0,2,1
26,3,animal,0,0,animals,1,a_077.jpg,77,tbd,221.20622975246,228.104790656875,6.84017776027135,animal,0.789744410596541,0,1,1
27,3,tool,0,0,animals,1,t_333.jpg,333,tbd,230.65442067566,237.852891037232,7.1512141141813,tool,0.607976525498998,0,2,1
28,3,tool,0,0,animals,1,t_319.jpg,319,tbd,240.402539979246,247.317894448224,6.85541121310281,tool,1.60934252609968,0,2,1
29,3,tool,0,0,animals,1,t_226.jpg,226,tbd,249.867385269014,255.766143103311,5.85540848722466,tool,0.592257094774141,0,2,1
30,3,animal,0,0,animals,1,a_160.jpg,160,tbd,258.315756443996,265.364293245348,6.9944561618915,animal,0.778478032782004,0,1,1
31,3,tool,0,0,animals,1,t_308.jpg,308,tbd,267.91389920918,274.845791298019,6.8829766717274,tool,0.568198613654204,0,2,1
32,3,animal,0,0,animals,1,a_065.jpg,65,tbd,277.412012819761,284.593927600439,7.13349863130617,animal,0.634371544391797,0,1,1
33,3,tool,0,0,animals,1,t_350.jpg,350,tbd,287.160211344327,293.77546712385,6.55755906733365,tool,0.700057282145281,0,2,1
34,3,animal,0,0,animals,1,a_161.jpg,161,tbd,296.341736755498,302.02388005823,5.62867379976687,animal,0.881977836012084,0,1,1
35,3,animal,0,0,animals,1,a_111.jpg,111,tbd,304.59015931186,309.372464873269,4.72201537771522,animal,1.37762725720222,0,1,1
36,3,tool,0,0,animals,1,t_286.jpg,286,tbd,311.922118947007,319.370543363619,7.39305243080276,tool,0.682846123597301,0,2,1
37,3,animal,0,0,animals,1,a_016.jpg,16,tbd,321.936847634399,328.552100527328,6.56786003341807,animal,0.918591078231657,0,1,1
38,3,animal,0,0,animals,1,a_138.jpg,138,tbd,331.101693341119,336.817171356335,5.66645975979667,animal,0.746775849778714,0,1,1
39,3,animal,0,0,animals,1,a_063.jpg,63,tbd,339.366824467876,344.315627188715,4.90704209086537,animal,0.607615380470634,0,1,1
40,3,tool,0,0,animals,1,t_277.jpg,277,tbd,346.882024792713,352.814100340661,5.87901411792303,tool,0.688339954143885,0,2,1
41,3,animal,0,0,animals,1,a_051.jpg,51,tbd,355.363743509488,362.145636608635,6.73689508691191,animal,0.731140451022839,0,1,1
42,3,animal,0,0,animals,1,a_114.jpg,114,tbd,364.695255722508,369.344228848635,4.59944237609469,animal,0.814809350951691,0,1,1
43,3,tool,0,0,animals,1,t_329.jpg,329,tbd,371.910561023161,378.559130026077,6.58329016285187,tool,0.598179744949448,0,2,1
44,3,animal,0,0,animals,1,a_175.jpg,175,tbd,381.125446484701,388.157302619403,6.97269960982138,animal,0.844324457622861,0,1,1
45,3,animal,0,0,animals,1,a_131.jpg,131,tbd,390.706934241852,398.205407073066,7.45859965276484,animal,0.803537520680038,0,1,1
46,3,animal,0,0,animals,1,a_162.jpg,162,tbd,400.771667403465,408.036708083598,7.21898113781995,animal,0.620545078105351,0,1,1
47,3,tool,0,0,animals,1,t_317.jpg,317,tbd,410.586392947676,417.135209267582,6.49575107202542,tool,0.781328063620094,0,2,1
48,3,tool,0,0,animals,1,t_235.jpg,235,tbd,419.701411675088,425.016889047406,5.25498200770669,tool,0.902866836516296,0,2,1
49,3,tool,0,0,animals,1,t_291.jpg,291,tbd,427.583175036422,432.248822735277,4.6228402849106,tool,0.562102767817123,0,2,1
50,3,animal,0,0,animals,1,a_151.jpg,151,tbd,434.798462376044,440.980465358217,6.13890319352884,animal,0.712819236574433,0,1,1
51,3,tool,0,0,animals,1,t_257.jpg,257,tbd,443.530109168508,450.378662070642,6.79763821545902,tool,0.73983679765297,0,2,1
52,3,tool,0,0,animals,1,t_217.jpg,217,tbd,452.928303956538,459.476756886286,6.50135992473817,tool,0.589102367863234,0,2,1
53,3,animal,0,0,animals,1,a_105.jpg,105,tbd,462.026540215306,469.858241500257,7.77888548727608,animal,0.655877313891324,0,1,1
54,3,tool,0,0,animals,1,t_258.jpg,258,tbd,472.407880178826,477.940059772464,5.47060961396135,tool,0.748385607236742,0,2,1
55,3,tool,0,0,animals,1,t_273.jpg,273,tbd,480.506303424762,488.45469368334,7.89534932603826,tool,0.900071009505155,0,2,1
56,3,animal,0,0,animals,1,a_026.jpg,26,tbd,491.020972295504,498.519398941208,7.44624607727304,animal,0.941625459815441,0,1,1
57,3,animal,0,0,animals,1,a_021.jpg,21,tbd,501.06903922344,507.484347346541,6.36468165271115,animal,0.681086263232828,0,1,1
58,3,tool,0,0,animals,1,t_331.jpg,331,tbd,510.033953310373,515.299522237276,5.21782395178929,tool,0.642054375665793,0,2,1
59,3,animal,0,0,animals,1,a_003.jpg,3,tbd,517.849115692532,525.164295875356,7.2552584415984,animal,0.658628559055614,0,1,1
60,3,animal,0,0,animals,1,a_149.jpg,149,tbd,527.713893500139,535.51227835437,7.74247607142739,tool,0.508820405324514,0,2,0
