trial,phase,object,toShock,seenBefore,shockedCategory,responseSide,filename,num,name,onsetFixationCross,onsetStimulus,interTrialTime,response,reactionTime,wasShocked,buttonPressed,isResponseCorrect
1,3,animal,0,0,animals,2,a_176.jpg,176,tbd,0.0154684425756386,7.98049295335431,7.89282165138526,animal,0.633359645839846,0,2,1
2,3,animal,0,0,animals,2,a_020.jpg,20,tbd,10.5469270423887,16.9456893795659,6.34057845513434,animal,0.584456761381261,0,2,1
3,3,tool,0,0,animals,2,t_249.jpg,249,tbd,19.512044887852,26.8772692823954,7.31026137263452,tool,0.806288289388704,0,1,1
4,3,animal,0,0,animals,2,a_108.jpg,108,tbd,29.4269236553978,35.242365702577,5.75122138446145,animal,0.822651046347801,0,2,1
5,3,tool,0,0,animals,2,t_245.jpg,245,tbd,37.7920890341957,43.9575104900114,6.12207424079039,tool,0.80185120338092,0,1,1
6,3,animal,0,0,animals,2,a_049.jpg,49,tbd,46.50725659401,53.3559511272274,6.79428881918328,animal,0.785797637611267,0,2,1
7,3,animal,0,0,animals,2,a_016.jpg,16,tbd,55.9222280547651,61.5711514022923,5.59908674313051,animal,0.659106227096345,0,2,1
8,3,tool,0,0,animals,2,t_239.jpg,239,tbd,64.1207627964363,70.1196437424333,5.94354642305977,tool,0.863015250475655,0,1,1
9,3,tool,0,0,animals,2,t_227.jpg,227,tbd,72.669299398387,79.9846657514577,7.25931175253128,tool,0.893396492192551,0,1,1
10,3,tool,0,0,animals,2,t_262.jpg,262,tbd,82.5341959989514,87.8498487708316,5.25871617930188,tool,0.947622661056812,0,1,1
11,3,animal,0,0,animals,2,a_006.jpg,6,tbd,90.3994883898977,98.4479791263498,7.98783365223315,animal,0.815947627411788,0,2,1
12,3,animal,0,0,animals,2,a_151.jpg,151,tbd,100.997638310419,105.663147969115,4.60323262812774,animal,0.713170423397969,0,2,1
13,3,tool,0,0,animals,2,t_199.jpg,199,tbd,108.213011783867,113.295367294719,5.01829071782164,tool,1.32935735192405,0,1,1
14,3,animal,0,0,animals,2,a_059.jpg,59,tbd,115.844993763538,120.244093196089,4.34282318241049,animal,1.11686153755136,0,2,1
15,3,animal,0,0,animals,2,a_026.jpg,26,tbd,122.810424328306,129.9590304662,7.09018096051464,animal,0.735362268192148,0,2,1
16,3,animal,0,0,animals,2,a_056.jpg,56,tbd,132.525383408584,139.807200272461,7.23421948087511,animal,0.639664067017748,0,2,1
17,3,tool,0,0,animals,2,t_286.jpg,286,tbd,142.356940923918,149.355642577514,6.9384531253117,tool,1.0447545599659,0,1,1
18,3,animal,0,0,animals,2,a_047.jpg,47,tbd,151.92198525629,159.653784992772,7.68594756959175,animal,1.18409747095575,0,2,1
19,3,tool,0,0,animals,2,t_237.jpg,237,tbd,162.220127671548,168.55232505869,6.26752856090706,tool,0.816962762384719,0,1,1
20,3,animal,0,0,animals,2,a_087.jpg,87,tbd,171.118554517041,178.217233654846,7.03685742125938,animal,0.84744343280363,0,2,1
21,3,tool,0,0,animals,2,t_192.jpg,192,tbd,180.76681233374,187.332268172643,6.51047891981766,tool,0.563910621973264,0,1,1
22,3,tool,0,0,animals,2,t_320.jpg,320,tbd,189.898561137068,195.430836655925,5.47344259820346,tool,0.917715148993921,0,1,1
23,3,animal,0,0,animals,2,a_099.jpg,99,tbd,197.997115507889,205.945623949066,7.88734784877009,animal,0.736353668571155,0,2,1
24,3,tool,0,0,animals,2,t_221.jpg,221,tbd,208.511938402919,212.611096081445,4.02657297585314,tool,0.724261855466466,0,1,1
25,3,tool,0,0,animals,2,t_215.jpg,215,tbd,215.177373329721,222.192759440237,6.95035875666056,tool,0.791985630985891,0,1,1
26,3,tool,0,0,animals,2,t_279.jpg,279,tbd,224.742416058404,231.041172686449,6.24571895191072,tool,0.694994856686662,0,1,1
27,3,animal,0,0,animals,2,a_083.jpg,83,tbd,233.590843096339,241.622722824815,7.98073566539341,animal,0.565927741671658,0,2,1
28,3,tool,0,0,animals,2,t_312.jpg,312,tbd,244.172313371006,251.204378485901,6.96929724689608,tool,0.666726314516836,0,1,1
29,3,tool,0,0,animals,2,t_288.jpg,288,tbd,253.753955881844,260.136096305962,6.3326431979555,tool,0.91144825413312,0,1,1
30,3,animal,0,0,animals,2,a_077.jpg,77,tbd,262.68568011666,269.051156611073,6.30951666979559,animal,0.712755709490011,0,2,1
31,3,animal,0,0,animals,2,a_074.jpg,74,tbd,271.617452782876,279.499227245223,7.830460141388,animal,0.521275915326441,0,2,1
32,3,tool,0,0,animals,2,t_296.jpg,296,tbd,282.048930370363,286.631386592868,4.52137407270069,tool,0.654455209010393,0,1,1
33,3,tool,0,0,animals,2,t_222.jpg,222,tbd,289.181006005456,296.713048989446,7.47305685482425,tool,1.38122930571717,0,1,1
34,3,animal,0,0,animals,2,a_090.jpg,90,tbd,299.262567690381,307.277671551679,7.96309101461854,animal,0.666155080587487,0,2,1
35,3,animal,0,0,animals,2,a_014.jpg,14,tbd,309.827377884197,315.776190705496,5.88425419691791,animal,0.884040892817211,0,2,1
36,3,animal,0,0,animals,2,a_008.jpg,8,tbd,318.342521837713,322.691762908053,4.29222517505399,animal,0.788604092907462,0,2,1
37,3,tool,0,0,animals,2,t_190.jpg,190,tbd,325.224336713016,330.206818979426,4.94782584575766,tool,0.660647371976211,0,1,1
38,3,tool,0,0,animals,2,t_241.jpg,241,tbd,332.739812309364,337.072272380722,4.30383086814191,tool,0.690536281249479,0,1,1
39,3,tool,0,0,animals,2,t_290.jpg,290,tbd,339.605154735399,345.970898725094,6.31879127079179,tool,0.65973326939411,0,1,1
40,3,animal,0,0,animals,2,a_129.jpg,129,tbd,348.520517496207,354.219435519487,5.64816683263045,animal,0.85556611627544,0,2,1
41,3,tool,0,0,animals,2,t_204.jpg,204,tbd,356.769029593793,364.800786479712,7.98610223253646,tool,0.789779917492069,0,1,1
42,3,animal,0,0,animals,2,a_028.jpg,28,tbd,367.35053547035,371.533049361502,4.13531591700373,animal,0.713722413062897,0,2,1
43,3,animal,0,0,animals,2,a_071.jpg,71,tbd,374.099349382157,381.747896183568,7.60917512684745,animal,0.609435496468905,0,2,1
44,3,tool,0,0,animals,2,t_240.jpg,240,tbd,384.297534198946,388.780035388883,4.41950124681892,tool,0.785666776610014,0,1,1
45,3,tool,0,0,animals,2,t_317.jpg,317,tbd,391.346298524697,397.62835401746,6.23981881257532,tool,0.663722605505427,0,1,1
46,3,animal,0,0,animals,2,a_105.jpg,105,tbd,400.178045275303,406.410211615031,6.18001912467073,animal,1.12025718809082,0,2,1
47,3,animal,0,0,animals,2,a_173.jpg,173,tbd,408.976489504782,415.941791453713,6.91047946091334,animal,0.698073939068763,0,2,1
48,3,animal,0,0,animals,2,a_052.jpg,52,tbd,418.508161715935,423.223890246071,4.66275533460075,animal,0.613306801088584,0,2,1
49,3,tool,0,0,animals,2,t_247.jpg,247,tbd,425.773532431039,431.372449556254,5.54451008758968,tool,1.9422634540233,0,1,1
50,3,tool,0,0,animals,2,t_209.jpg,209,tbd,433.922105212208,439.937732196772,5.94853560859793,tool,0.591317662551774,0,1,1
51,3,tool,0,0,animals,2,t_285.jpg,285,tbd,442.487246086641,449.019333653178,6.47494779004001,tool,0.600152063086625,0,1,1
52,3,animal,0,0,animals,2,a_174.jpg,174,tbd,451.585604807437,459.034247958467,7.39281975504268,animal,0.678503163152982,0,2,1
53,3,animal,0,0,animals,2,a_076.jpg,76,tbd,461.583883407942,468.032635609807,6.38818905016185,animal,1.22671100891102,0,2,1
54,3,tool,0,0,animals,2,t_300.jpg,300,tbd,470.59895166735,476.797760319058,6.13233241711618,tool,0.797047193389517,0,1,1
55,3,animal,0,0,animals,2,a_112.jpg,112,tbd,479.364064509304,484.663049823364,5.24283881472897,animal,0.613040268020086,0,2,1
56,3,tool,0,0,animals,2,t_293.jpg,293,tbd,487.212687838742,492.878246570314,5.60893011565227,tool,0.966334822021508,0,1,1
57,3,animal,0,0,animals,2,a_024.jpg,24,tbd,495.444550439822,499.910278969958,4.41067954121374,animal,0.733642472386236,0,2,1
58,3,tool,0,0,animals,2,t_356.jpg,356,tbd,502.459966058211,507.558968820405,5.04211529338636,tool,0.67424985987509,0,1,1
59,3,tool,0,0,animals,2,t_267.jpg,267,tbd,510.125273972864,515.774244148102,5.60164554066699,tool,1.9274614069468,0,1,1
60,3,animal,0,0,animals,2,a_103.jpg,103,tbd,518.32385361782,523.972767984691,5.58930340502448,animal,0.645182680711969,0,2,1
