trial,phase,object,toShock,seenBefore,shockedCategory,responseSide,filename,num,name,onsetFixationCross,onsetStimulus,interTrialTime,response,reactionTime,wasShocked,buttonPressed,isResponseCorrect
1,2,tool,0,0,animals,1,t_338.jpg,338,tbd,0.0283558790579264,8.30977477489614,8.1720679124889,0,0.953649733122802,0,2,1
2,2,animal,0,0,animals,1,a_029.jpg,29,tbd,12.8923963221696,21.007530062896,8.06474548935671,0,1.80919396681384,0,2,1
3,2,animal,1,0,animals,1,a_179.jpg,179,tbd,25.556769429244,35.6047054982355,9.98914579654497,0,0.706507862461876,1,2,0
4,2,animal,1,0,animals,1,a_069.jpg,69,tbd,40.3705529814943,47.4189634141585,7.00102392051037,1,1.33463945652693,1,1,1
5,2,tool,0,0,animals,1,t_257.jpg,257,tbd,52.1849703015741,58.8835851532294,6.64216973307739,0,1.60540521548683,0,2,1
6,2,tool,0,0,animals,1,t_322.jpg,322,tbd,63.4328341415585,71.2478672684356,7.77035170209465,0,1.41442267970524,0,2,1
7,2,tool,0,0,animals,1,t_295.jpg,295,tbd,75.8137651708767,84.2952853541046,8.42772395037482,0,1.21647382951414,0,2,1
8,2,animal,1,0,animals,1,a_090.jpg,90,tbd,88.8612307249859,95.2432134368501,6.32118997856749,1,0.585865858216494,1,1,1
9,2,tool,0,0,animals,1,t_253.jpg,253,tbd,100.009121538591,109.007072698056,8.96113128488029,0,0.710513172512947,0,2,1
10,2,animal,1,0,animals,1,a_096.jpg,96,tbd,113.556489108858,120.988274554073,7.37224134894261,1,1.08556452983794,1,1,1
11,2,animal,0,0,animals,1,a_045.jpg,45,tbd,125.75413614957,134.219096582379,8.42147846550287,1,1.23115440699985,0,1,0
12,2,animal,0,0,animals,1,a_046.jpg,46,tbd,138.784971392064,148.149739096591,9.31043255233485,1,0.672005362190248,0,1,0
13,2,tool,0,0,animals,1,t_256.jpg,256,tbd,152.698956653114,161.547125317464,8.79595841812061,0,0.521029741405073,0,2,1
14,2,animal,1,0,animals,1,a_111.jpg,111,tbd,166.096370457,175.327826894603,9.17656331521037,1,0.534766402532114,1,1,1
15,2,tool,0,0,animals,1,t_302.jpg,302,tbd,180.093657379028,188.058669930902,7.90847196240381,0,3.03340697695057,0,2,1
16,2,tool,0,0,animals,1,t_317.jpg,317,tbd,192.624622678635,202.522579322627,9.83717923241892,0,1.1378102842209,0,2,1
17,2,animal,1,0,animals,1,a_066.jpg,66,tbd,207.071821896301,215.470101037034,8.34526865501465,1,0.475661779204529,1,1,1
18,2,animal,0,0,animals,1,a_059.jpg,59,tbd,220.219309869626,229.183982444833,8.92282415345387,1,4.44335020405561,0,1,0
19,2,tool,0,0,animals,1,t_233.jpg,233,tbd,233.733337595688,241.881513540669,8.1087135891336,0,2.48823161474138,0,2,1
20,2,animal,1,0,animals,1,a_175.jpg,175,tbd,246.447570205801,255.195775145021,8.70027223876638,1,0.495322373437375,1,1,1
21,2,animal,1,0,animals,1,a_161.jpg,161,tbd,259.961654060084,269.426332568844,9.41064495648964,1,1.03712234463455,1,1,1
22,2,tool,0,0,animals,1,t_352.jpg,352,tbd,274.192212125374,283.040317605381,8.80749382263751,0,0.459647915853566,0,2,1
23,2,tool,0,0,animals,1,t_297.jpg,297,tbd,287.589708999032,296.137853704648,8.49614015068387,0,0.493428446799953,0,2,1
24,2,tool,0,0,animals,1,t_207.jpg,207,tbd,300.687153689476,309.468625666581,8.74226247921082,0,0.562116242694174,0,2,1
25,2,animal,1,0,animals,1,a_087.jpg,87,tbd,314.017863108533,323.049367720185,8.98342277569837,1,0.709734112770093,1,1,1
26,2,tool,0,0,animals,1,t_349.jpg,349,tbd,327.798581043036,334.16390489808,6.31530166694247,,4.50434041497283,0,,0
27,2,animal,0,0,animals,1,a_140.jpg,140,tbd,338.679829437369,346.461509569999,7.7295531457866,1,1.36140235583662,0,1,0
28,2,tool,0,0,animals,1,t_329.jpg,329,tbd,351.010803140176,359.892168281211,8.83348059538467,0,1.10122654941006,0,2,1
29,2,tool,0,0,animals,1,t_222.jpg,222,tbd,364.458201853588,372.58985461168,8.08838020408778,0,1.09092172825331,0,2,1
30,2,animal,1,0,animals,1,a_060.jpg,60,tbd,377.139096864623,386.320559091451,9.1258456824021,1,1.38867778600979,1,1,1
31,2,animal,1,0,animals,1,a_148.jpg,148,tbd,391.086393745401,399.451372812779,8.31464447298478,1,1.50120621495807,1,1,1
32,2,animal,1,0,animals,1,a_020.jpg,20,tbd,404.217220296039,412.89860057566,8.62969357693239,1,1.52440801901321,1,1,1
33,2,tool,0,0,animals,1,t_285.jpg,285,tbd,417.647962397754,425.696251914189,8.00044815877519,0,1.58415282482747,0,2,1
34,2,tool,0,0,animals,1,t_336.jpg,336,tbd,430.262198568002,436.427553277528,6.1200426965018,0,1.828267299461,0,2,1
35,2,animal,0,0,animals,1,a_026.jpg,26,tbd,440.993476517851,449.408246772204,8.3607823743367,1,1.39597156851232,0,1,0
36,2,animal,0,0,animals,1,a_092.jpg,92,tbd,453.974279703114,461.989331047607,7.97095695230752,1,2.30923165291097,0,1,0
37,2,tool,0,0,animals,1,t_239.jpg,239,tbd,466.555235043968,473.537079006866,6.92650924983965,0,0.70089471934989,0,2,1
38,2,tool,0,0,animals,1,t_276.jpg,276,tbd,478.10297145685,485.868033786443,7.70999175119092,1,2.58539277747332,0,1,0
39,2,tool,0,0,animals,1,t_280.jpg,280,tbd,490.433949970648,496.999076190194,6.50665015066126,0,1.92464844025017,0,2,1
40,2,animal,1,0,animals,1,a_033.jpg,33,tbd,501.548508958364,511.329809022733,9.73630542423309,1,0.550347918193438,1,1,1
41,2,animal,1,0,animals,1,a_025.jpg,25,tbd,516.095699163441,523.027521974018,6.8795490026624,1,1.52693026102497,1,1,1
42,2,animal,0,0,animals,1,a_098.jpg,98,tbd,527.776767370138,536.974698900762,9.15726706089266,1,0.866149681005481,0,1,0
43,2,tool,0,0,animals,1,t_212.jpg,212,tbd,541.524120443286,547.98940834419,6.42692794589203,0,0.908884427681187,0,2,1
44,2,tool,0,0,animals,1,t_342.jpg,342,tbd,552.555305284433,562.07003284926,9.46239092030949,0,0.72564181359121,0,2,1
45,2,animal,1,0,animals,1,a_177.jpg,177,tbd,566.619284403452,573.017856373142,6.36033435166255,1,0.973269915040873,1,1,1
46,2,tool,0,0,animals,1,t_182.jpg,182,tbd,577.767111391247,586.098806101178,8.2742954208081,0,1.16477460366877,0,2,1
47,2,tool,0,0,animals,1,t_201.jpg,201,tbd,590.664644668068,598.396386076682,7.68118645725219,0,1.41542721454607,0,2,1
48,2,animal,1,0,animals,1,a_008.jpg,8,tbd,602.962291997439,612.610311585227,9.60314764805876,1,2.13404488223387,1,1,1
49,2,animal,1,0,animals,1,a_007.jpg,7,tbd,617.37619370762,624.341388756402,6.9113764972529,1,0.562207010054408,1,1,1
50,2,animal,1,0,animals,1,a_163.jpg,163,tbd,629.090612663433,638.371964526137,9.22776372922625,1,0.54815538940602,1,1,1
51,2,tool,0,0,animals,1,t_196.jpg,196,tbd,643.137934850023,651.402738829416,8.22657021408453,0,0.772810369217041,0,2,1
52,2,animal,1,0,animals,1,a_035.jpg,35,tbd,655.952109375445,663.033889159724,7.03670266997082,1,0.635049898173747,1,1,1
53,2,tool,0,0,animals,1,t_270.jpg,270,tbd,667.799833504261,675.048289737555,7.19940920936751,0,0.666969537953264,0,2,1
54,2,tool,0,0,animals,1,t_218.jpg,218,tbd,679.614207525425,688.395724405105,8.73403660925982,0,0.867966631794843,0,2,1
55,2,tool,0,0,animals,1,t_298.jpg,298,tbd,692.961644117371,700.060139207435,7.0380043596458,0,0.753914401753718,0,2,1
56,2,animal,0,0,animals,1,a_030.jpg,30,tbd,704.626069183145,714.224144915192,9.55140786060213,1,0.883421778769844,0,1,0
57,2,tool,0,0,animals,1,t_252.jpg,252,tbd,718.790010423629,727.988110659655,9.15762036540348,0,0.543929415252933,0,2,1
58,2,tool,0,0,animals,1,t_319.jpg,319,tbd,732.537339441824,740.40239789055,7.81733081030266,0,1.94699934043456,0,2,1
59,2,animal,0,0,animals,1,a_051.jpg,51,tbd,744.951637898364,754.483000585795,9.47778161820958,1,0.820766965098301,0,1,0
60,2,animal,1,0,animals,1,a_172.jpg,172,tbd,759.048885979661,765.147527323839,6.05105046649688,1,0.950496289144212,1,1,1
