trial,phase,object,toShock,seenBefore,shockedCategory,responseSide,filename,num,name,onsetFixationCross,onsetStimulus,interTrialTime,response,reactionTime,wasShocked,buttonPressed,isResponseCorrect
1,2,animal,1,0,animals,2,a_038.jpg,38,tbd,0.0285459382039335,7.0269332838061,6.88277892741591,1,2.22074259190413,1,1,1
2,2,animal,1,0,animals,2,a_145.jpg,145,tbd,11.8097050800588,19.8079541889774,7.95802032020867,0,1.75426723283272,1,2,0
3,2,tool,0,0,animals,2,t_342.jpg,342,tbd,24.5739887622603,31.2226199785409,6.60089810143414,0,1.7550273742263,0,2,1
4,2,animal,1,0,animals,2,a_161.jpg,161,tbd,35.7718878854039,45.3200069203385,9.50528220312123,1,1.6481700970262,1,1,1
5,2,animal,0,0,animals,2,a_051.jpg,51,tbd,50.0859042191423,58.5008808006933,8.36166464799766,1,1.35177461053445,0,1,0
6,2,animal,1,0,animals,2,a_147.jpg,147,tbd,63.0667534670674,70.2153617508129,7.09417837269978,1,3.65781908169265,1,1,1
7,2,tool,0,0,animals,2,t_220.jpg,220,tbd,74.9646090665028,82.1298083181646,7.11403222187013,0,1.82875852344114,0,2,1
8,2,animal,0,0,animals,2,a_174.jpg,174,tbd,86.6957412826741,96.3103537661209,9.5650542558247,1,2.34571144053916,0,1,0
9,2,animal,1,0,animals,2,a_171.jpg,171,tbd,100.876452871238,108.05828639001,7.13458985317735,0,1.47318298254595,1,2,0
10,2,animal,1,0,animals,2,a_067.jpg,67,tbd,112.807538195987,121.922298698527,9.06828722410632,1,2.17879882376474,1,1,1
11,2,tool,0,0,animals,2,t_245.jpg,245,tbd,126.688317876542,136.553097382617,9.82253977705151,0,1.5905308524334,0,2,1
12,2,tool,0,0,animals,2,t_358.jpg,358,tbd,141.102305312078,149.683871530497,8.54253110384644,0,1.5221809911036,0,2,1
13,2,animal,1,0,animals,2,a_172.jpg,172,tbd,154.233167982753,163.147913474906,8.87759618859869,1,2.10975200579014,1,1,1
14,2,tool,0,0,animals,2,t_350.jpg,350,tbd,167.913979480197,173.996080523835,6.032857698267,0,1.45888013644162,0,2,1
15,2,tool,0,0,animals,2,t_250.jpg,250,tbd,178.545329186612,185.96052835809,7.37215902606981,0,1.47575367168611,0,2,1
16,2,tool,0,0,animals,2,t_293.jpg,293,tbd,190.49311869865,198.941431168721,8.41055068111572,0,1.62454669865565,0,2,1
17,2,animal,1,0,animals,2,a_121.jpg,121,tbd,203.50735130384,210.072686098013,6.52513890928845,1,1.49766915743385,1,1,1
18,2,tool,0,0,animals,2,t_205.jpg,205,tbd,214.838565756405,221.637215206457,6.74709337146128,0,1.42354607033667,0,2,1
19,2,animal,1,0,animals,2,a_097.jpg,97,tbd,226.186447511761,232.968412339344,6.72056576947373,1,1.68982360020436,1,1,1
20,2,tool,0,0,animals,2,t_237.jpg,237,tbd,237.717649070788,246.03264300409,8.26554983264393,0,1.45503196073241,0,2,1
21,2,tool,0,0,animals,2,t_181.jpg,181,tbd,250.581914439035,257.347200738112,6.71291257567176,0,1.5449079358068,0,2,1
22,2,tool,0,0,animals,2,t_214.jpg,214,tbd,261.896492700082,268.128524737635,6.17548388218724,0,1.49305410490342,0,2,1
23,2,animal,0,0,animals,2,a_126.jpg,126,tbd,272.69449907693,279.526464529948,6.79184086278178,1,1.42660555925795,0,1,0
24,2,animal,1,0,animals,2,a_159.jpg,159,tbd,284.075679515573,292.24072962557,8.11716204464476,0,2.18180603291967,1,2,0
25,2,animal,1,0,animals,2,a_034.jpg,34,tbd,296.989957697174,306.221459560162,9.17369058281161,1,1.47949087316647,1,1,1
26,2,tool,0,0,animals,2,t_210.jpg,210,tbd,310.97062123967,317.90264695875,6.88498012821449,0,1.28573981273712,0,2,1
27,2,tool,0,0,animals,2,t_252.jpg,252,tbd,322.468492362668,330.666923584787,8.14368096717927,0,1.38301257295825,0,2,1
28,2,animal,0,0,animals,2,a_060.jpg,60,tbd,335.232845002845,342.09795903528,6.82691316811906,1,1.90648057533508,0,1,0
29,2,animal,1,0,animals,2,a_178.jpg,178,tbd,346.647408157284,356.028845825209,9.32998496827695,1,1.23605222443439,1,1,1
30,2,tool,0,0,animals,2,t_332.jpg,332,tbd,360.794766216915,369.726311796052,8.8868727859908,0,1.53904233842695,0,2,1
31,2,animal,0,0,animals,2,a_095.jpg,95,tbd,374.275565590585,382.657209811699,8.33832341142434,1,1.5626362291996,0,1,0
32,2,tool,0,0,animals,2,t_274.jpg,274,tbd,387.223171642337,395.888098750551,8.62034548941128,0,1.20530177885394,0,2,1
33,2,tool,0,0,animals,2,t_207.jpg,207,tbd,400.454013433178,406.769384229829,6.26265241274687,0,1.21436125302171,0,2,1
34,2,tool,0,0,animals,2,t_303.jpg,303,tbd,411.335358889858,418.767098673895,7.38519185488958,0,1.82011215565035,0,2,1
35,2,animal,1,0,animals,2,a_028.jpg,28,tbd,423.333104124462,430.814875645203,7.44352897483003,1,1.41576985596294,1,1,1
36,2,animal,0,0,animals,2,a_059.jpg,59,tbd,435.580801168666,443.262525156515,7.64431865695183,1,1.45766743829608,0,1,0
37,2,animal,0,0,animals,2,a_098.jpg,98,tbd,447.811910773036,455.093789804071,7.23077490646371,1,1.26584591821211,0,1,0
38,2,tool,0,0,animals,2,t_217.jpg,217,tbd,459.659671771753,468.941199918955,9.24273871201226,0,1.4088483997366,0,2,1
39,2,tool,0,0,animals,2,t_243.jpg,243,tbd,473.490418111929,482.138710953033,8.59547854152205,0,1.41390606624373,0,2,1
40,2,animal,1,0,animals,2,a_112.jpg,112,tbd,486.704675991019,496.269416142938,9.51607132940475,1,1.53471049469317,1,1,1
41,2,tool,0,0,animals,2,t_282.jpg,282,tbd,501.035306064842,507.100742050834,6.01069526026967,0,1.35479015879446,0,2,1
42,2,animal,1,0,animals,2,a_146.jpg,146,tbd,511.650017013862,519.331764736084,7.62859362279282,1,1.36524130110683,1,1,1
43,2,tool,0,0,animals,2,t_269.jpg,269,tbd,524.097708862163,533.445855223699,9.29536087846434,0,1.39168010924368,0,2,1
44,2,animal,1,0,animals,2,a_131.jpg,131,tbd,537.995116395132,547.976404087481,9.93517000305793,1,1.79574882217639,1,1,1
45,2,animal,0,0,animals,2,a_096.jpg,96,tbd,552.725716191594,560.27420888253,7.50243483956248,1,1.76546632861755,0,1,0
46,2,tool,0,0,animals,2,t_279.jpg,279,tbd,564.840123885892,574.388223676741,9.48494953671025,0,1.47988601839643,0,2,1
47,2,animal,1,0,animals,2,a_072.jpg,72,tbd,578.9374906214,585.452827356018,6.46601077307662,1,1.64075053971101,1,1,1
48,2,tool,0,0,animals,2,t_240.jpg,240,tbd,590.202067615543,596.850719679584,6.59577167316993,0,2.69732398268025,0,2,1
49,2,animal,1,0,animals,2,a_105.jpg,105,tbd,601.399918949207,607.89864932064,6.43958992436987,,4.50443441582956,1,,0
50,2,animal,1,0,animals,2,a_134.jpg,134,tbd,612.614559464871,621.995993604714,9.32006574909343,1,1.9979692048064,1,1,1
51,2,tool,0,0,animals,2,t_246.jpg,246,tbd,626.761951843123,634.510353701973,7.69743682276218,0,1.40807029719781,0,2,1
52,2,animal,0,0,animals,2,a_156.jpg,156,tbd,639.076323550981,647.291350872772,8.16160509043556,1,1.28246735593075,0,1,0
53,2,tool,0,0,animals,2,t_257.jpg,257,tbd,651.857264593196,658.255771444572,6.35352864978523,0,1.0935353353434,0,2,1
54,2,tool,0,0,animals,2,t_307.jpg,307,tbd,662.821858361769,670.920274862161,8.06140074493682,0,1.43752337065416,0,2,1
55,2,tool,0,0,animals,2,t_294.jpg,294,tbd,675.469474131784,682.318138640333,6.80525015744756,0,1.43708011520903,0,2,1
56,2,animal,0,0,animals,2,a_039.jpg,39,tbd,686.884095339215,692.966136084719,6.03708064652646,1,1.34153515316666,0,1,0
57,2,tool,0,0,animals,2,t_278.jpg,278,tbd,697.532109782544,706.646777272002,9.05940634647094,0,1.69036243460869,0,2,1
58,2,tool,0,0,animals,2,t_263.jpg,263,tbd,711.196199452286,718.144810045322,6.89002605305083,0,1.25776019478963,0,2,1
59,2,tool,0,0,animals,2,t_251.jpg,251,tbd,722.710741085422,730.342429808485,7.58640328534188,0,1.3156124072666,0,2,1
60,2,animal,1,0,animals,2,a_150.jpg,150,tbd,734.908458672689,744.123300930521,9.16513030396704,1,1.33225790009328,1,1,1
