trial,phase,object,toShock,seenBefore,shockedCategory,responseSide,filename,num,name,onsetFixationCross,onsetStimulus,interTrialTime,response,reactionTime,wasShocked,buttonPressed,isResponseCorrect
1,2,tool,0,0,animals,2,t_277.jpg,277,tbd,0.0312703792392313,7.04626335038165,6.85496746963243,0,2.60493309487401,0,2,1
2,2,tool,0,0,animals,2,t_186.jpg,186,tbd,11.6288874635156,18.144350789174,6.45903324616633,1,1.25219479127372,0,1,0
3,2,tool,0,0,animals,2,t_341.jpg,341,tbd,22.7102255988593,29.0588771263006,6.29301684669117,0,2.01899292627741,0,2,1
4,2,animal,0,0,animals,2,a_179.jpg,179,tbd,33.6247666896902,40.2234296833262,6.54720485840889,1,1.19670995728029,0,1,0
5,2,animal,1,0,animals,2,a_027.jpg,27,tbd,44.7726453154532,52.404419150143,7.57407044289541,1,2.76626966504182,1,1,1
6,2,animal,1,0,animals,2,a_138.jpg,138,tbd,57.1702647090056,67.0182358020079,9.80011139723046,0,1.09086623942403,1,2,0
7,2,tool,0,0,animals,2,t_306.jpg,306,tbd,71.7674481626618,80.0323955095769,8.20323301937172,0,2.16414436182868,0,2,1
8,2,animal,1,0,animals,2,a_045.jpg,45,tbd,84.5983014303347,92.546694575507,7.8949305016274,0,3.90530857665408,1,2,0
9,2,tool,0,0,animals,2,t_356.jpg,356,tbd,97.2958992385757,104.877650638013,7.51344712674371,0,2.15967815887734,0,2,1
10,2,tool,0,0,animals,2,t_342.jpg,342,tbd,109.44352929649,118.641660322858,9.13590544969108,0,0.963987266948607,0,2,1
11,2,tool,0,0,animals,2,t_275.jpg,275,tbd,123.207543471593,130.106132279754,6.84037463308944,0,0.904937809644252,0,2,1
12,2,animal,1,0,animals,2,a_051.jpg,51,tbd,134.655345346019,141.537238733826,6.81476402430422,1,1.19322487568115,1,1,1
13,2,animal,1,0,animals,2,a_031.jpg,31,tbd,146.303101291522,154.218154913219,7.8560879314613,1,0.880600291070095,1,1,1
14,2,tool,0,0,animals,2,t_336.jpg,336,tbd,158.983990208635,167.832049182399,8.79585832155833,0,0.962213615076507,0,2,1
15,2,tool,0,0,animals,2,t_294.jpg,294,tbd,172.381406257651,179.463305033767,7.03179687479446,0,0.763318282667569,0,2,1
16,2,animal,1,0,animals,2,a_126.jpg,126,tbd,184.012521307359,191.461002172927,7.39831424561933,1,1.04393534673773,1,1,1
17,2,animal,1,0,animals,2,a_019.jpg,19,tbd,196.210142689454,203.025287752047,6.75853259770234,1,0.879045058171414,1,1,1
18,2,tool,0,0,animals,2,t_323.jpg,323,tbd,207.791270263775,214.356601752254,6.49858271010209,0,0.733104299427396,0,2,1
19,2,animal,0,0,animals,2,a_097.jpg,97,tbd,218.922461166769,228.203931379842,9.22308993222677,1,0.845092293760445,0,1,0
20,2,tool,0,0,animals,2,t_338.jpg,338,tbd,232.769801699269,240.601528322105,7.77384725675191,0,0.655004922963599,0,2,1
21,2,animal,0,0,animals,2,a_041.jpg,41,tbd,245.15074138837,254.515521601471,9.29768948342677,1,0.894452095239558,0,1,0
22,2,tool,0,0,animals,2,t_271.jpg,271,tbd,259.081395128226,268.879396065407,9.74769236927211,0,0.653951636752481,0,2,1
23,2,animal,0,0,animals,2,a_170.jpg,170,tbd,273.445306476423,282.960068038917,9.46880489542826,1,1.24881587220079,0,1,0
24,2,tool,0,0,animals,2,t_344.jpg,344,tbd,287.525897304557,297.073961185532,9.50170632703544,0,2.13330847786847,0,2,1
25,2,animal,1,0,animals,2,a_110.jpg,110,tbd,301.639872879479,311.671213275988,9.96415945906607,1,0.889482662670616,1,1,1
26,2,tool,0,0,animals,2,t_303.jpg,303,tbd,316.420348660792,326.135020353981,9.65753899232037,0,0.866129472774901,0,2,1
27,2,animal,0,0,animals,2,a_014.jpg,14,tbd,330.684258116666,337.082922778111,6.3350557190586,1,0.978647638273742,0,1,0
28,2,animal,1,0,animals,2,a_088.jpg,88,tbd,341.648832226929,348.330712208108,6.62546054774894,1,0.826075730802586,1,1,1
29,2,animal,0,0,animals,2,a_174.jpg,174,tbd,353.096664891695,362.8779133181,9.73259840314488,0,2.16644946779707,0,2,1
30,2,tool,0,0,animals,2,t_298.jpg,298,tbd,367.443864782902,374.959008338051,7.45353359646019,0,0.667664242926548,0,2,1
31,2,animal,0,0,animals,2,a_150.jpg,150,tbd,379.52486582817,385.79024488131,6.21255810830042,1,0.832839021404652,0,1,0
32,2,tool,0,0,animals,2,t_247.jpg,247,tbd,390.356120653193,400.404011498872,9.99814777076651,0,0.714458182746512,0,2,1
33,2,animal,1,0,animals,2,a_061.jpg,61,tbd,404.969977396646,412.868385953025,7.83849975002984,0,1.39657069513851,1,2,0
34,2,tool,0,0,animals,2,t_265.jpg,265,tbd,417.617550845238,427.132298295493,9.45733893202895,0,0.618017064941796,0,2,1
35,2,tool,0,0,animals,2,t_225.jpg,225,tbd,431.681461327456,440.762957263292,9.01682274473081,0,0.739779067801919,0,2,1
36,2,animal,1,0,animals,2,a_165.jpg,165,tbd,445.312221005325,455.093597724814,9.72217908382211,0,1.41667839076717,1,2,0
37,2,tool,0,0,animals,2,t_189.jpg,189,tbd,459.859401267691,467.174574073663,7.25515098458736,0,0.776813752799171,0,2,1
38,2,animal,0,0,animals,2,a_163.jpg,163,tbd,471.723784894799,479.005666607935,7.22997493152854,0,1.86727673366977,0,2,1
39,2,tool,0,0,animals,2,t_307.jpg,307,tbd,483.554853694852,492.053170008504,8.44420023816484,0,0.734836576780253,0,2,1
40,2,animal,1,0,animals,2,a_067.jpg,67,tbd,496.58566680679,506.050410745022,9.40233654399188,0,0.873454366347687,1,2,0
41,2,animal,0,0,animals,2,a_125.jpg,125,tbd,510.816274264916,517.814829684801,6.93439360178324,1,1.58946992958226,0,1,0
42,2,animal,1,0,animals,2,a_036.jpg,36,tbd,522.364062636495,531.378850017972,8.96144798226805,1,1.39782957101534,1,1,1
43,2,tool,0,0,animals,2,t_354.jpg,354,tbd,536.128064623755,544.392898431292,8.22541799203662,0,0.683093410551464,0,2,1
44,2,tool,0,0,animals,2,t_216.jpg,216,tbd,548.942313879895,556.090804463664,7.09330177518294,0,0.664617923671358,0,2,1
45,2,tool,0,0,animals,2,t_202.jpg,202,tbd,560.656658425723,567.23862182948,6.52796617071103,0,0.656066227492374,0,2,1
46,2,animal,0,0,animals,2,a_016.jpg,16,tbd,571.787821104239,580.902678694106,9.06633691929365,1,1.11454048275891,0,1,0
47,2,tool,0,0,animals,2,t_259.jpg,259,tbd,585.468552220861,591.600600763114,6.08042277750758,0,0.481924403979519,0,2,1
48,2,animal,1,0,animals,2,a_113.jpg,113,tbd,596.149854883166,603.498317499043,7.29030371055685,1,1.61461890190594,1,1,1
49,2,tool,0,0,animals,2,t_208.jpg,208,tbd,608.264151511528,616.945777472403,8.61900793827449,0,0.84856358385332,0,2,1
50,2,tool,0,0,animals,2,t_268.jpg,268,tbd,621.511634641789,630.793099081673,9.21860787633014,0,0.629592308353949,0,2,1
51,2,animal,1,0,animals,2,a_072.jpg,72,tbd,635.358939252226,643.723914150081,8.31094086825253,0,1.89821589356143,1,2,0
52,2,animal,1,0,animals,2,a_025.jpg,25,tbd,648.473120737546,657.471373065023,8.93068152555207,1,1.07116619506633,1,1,1
53,2,tool,0,0,animals,2,t_242.jpg,242,tbd,662.220425700788,672.051793423724,9.77728248869139,0,0.793126218300586,0,2,1
54,2,animal,1,0,animals,2,a_066.jpg,66,tbd,676.60104209132,685.665856719041,8.99625748411553,1,1.83665894795058,1,1,1
55,2,animal,1,0,animals,2,a_037.jpg,37,tbd,690.431688807129,697.713548068976,7.22679568163381,1,1.67836067872031,1,1,1
56,2,tool,0,0,animals,2,t_279.jpg,279,tbd,702.462727394161,709.178023553932,6.6540979224022,0,0.64512026165221,0,2,1
57,2,tool,0,0,animals,2,t_234.jpg,234,tbd,713.727237261663,722.05884986402,8.28008517083404,0,0.619700911655855,0,2,1
58,2,tool,0,0,animals,2,t_264.jpg,264,tbd,726.624703505347,733.856556689308,7.17219739617711,0,0.613364516287675,0,2,1
59,2,animal,1,0,animals,2,a_050.jpg,50,tbd,738.422463892997,745.987597489396,7.51084107506427,1,0.574691849353258,1,1,1
60,2,animal,1,0,animals,2,a_040.jpg,40,tbd,750.736777776779,756.835436761256,6.03864625496907,1,0.728293308814955,1,1,1
