trial,phase,object,toShock,seenBefore,shockedCategory,responseSide,filename,num,name,onsetFixationCross,onsetStimulus,interTrialTime,response,reactionTime,wasShocked,buttonPressed,isResponseCorrect
1,2,tool,0,0,animals,2,t_274.jpg,274,tbd,0.0285580685642799,8.34342182558362,8.19881700266726,0,2.24023203167258,0,2,1
2,2,tool,0,0,animals,2,t_307.jpg,307,tbd,12.9428223025848,22.7911293846025,9.8029492266842,0,2.47617730354909,0,2,1
3,2,tool,0,0,animals,2,t_313.jpg,313,tbd,27.3404001552583,34.4390363142059,7.03117236165748,0,2.60494100065443,0,2,1
4,2,animal,0,0,animals,2,a_162.jpg,162,tbd,38.9883009908447,45.6537288614152,6.602761486604,1,1.15863827297244,0,1,0
5,2,animal,1,0,animals,2,a_081.jpg,81,tbd,50.2030156689586,56.5184782433537,6.25131911295206,1,4.01551995794898,1,1,1
6,2,animal,1,0,animals,2,a_025.jpg,25,tbd,61.2843717609874,70.5825966058462,9.25108898702084,1,1.29387349562239,1,1,1
7,2,tool,0,0,animals,2,t_335.jpg,335,tbd,75.3319025293592,82.2972262884571,6.89919428898013,0,1.8149652099396,0,2,1
8,2,tool,0,0,animals,2,t_270.jpg,270,tbd,86.8632260985803,96.6780808749429,9.75818005620828,0,3.01483871097162,0,2,1
9,2,animal,0,0,animals,2,a_129.jpg,129,tbd,101.24391775029,107.57606702677,6.27620810974503,1,1.29727267427688,0,1,0
10,2,tool,0,0,animals,2,t_221.jpg,221,tbd,112.125407718255,121.840239144909,9.65293939979998,1,1.87474142479823,0,1,0
11,2,tool,0,0,animals,2,t_281.jpg,281,tbd,126.389548404095,133.788134976986,7.34195527870045,0,1.34245756675909,0,2,1
12,2,animal,1,0,animals,2,a_170.jpg,170,tbd,138.337445198385,147.235762993044,8.8408893113218,1,2.16645882148532,1,1,1
13,2,tool,0,0,animals,2,t_319.jpg,319,tbd,152.00168024527,158.717095735364,6.65324060757831,0,1.81971597746542,0,2,1
14,2,animal,1,0,animals,2,a_065.jpg,65,tbd,163.283023058756,171.048071111686,7.71940789319042,0,2.03338922011062,1,2,0
15,2,tool,0,0,animals,2,t_240.jpg,240,tbd,175.814167656314,183.912606882284,8.0352779394194,1,2.56940101299688,0,1,0
16,2,animal,1,0,animals,2,a_144.jpg,144,tbd,188.478568845353,198.326767518012,9.78686976989487,1,1.97781531122882,1,1,1
17,2,tool,0,0,animals,2,t_283.jpg,283,tbd,203.075980427578,209.857996469597,6.72155390699341,0,2.27821636170893,0,2,1
18,2,tool,0,0,animals,2,t_279.jpg,279,tbd,214.407254090005,223.905587215928,9.44701183791253,0,1.25323538145722,0,2,1
19,2,animal,1,0,animals,2,a_126.jpg,126,tbd,228.471509407516,235.75341800239,7.23355298561497,0,2.67998433232424,1,2,0
20,2,animal,1,0,animals,2,a_163.jpg,163,tbd,240.50270147426,249.501056089612,8.93790866721819,1,0.917892198481695,1,1,1
21,2,animal,1,0,animals,2,a_138.jpg,138,tbd,254.250270602867,260.482404227345,6.16898377798966,1,0.858061137468212,1,1,1
22,2,tool,0,0,animals,2,t_228.jpg,228,tbd,265.231637022652,273.196832807388,7.88823579101555,0,1.20530401163751,0,2,1
23,2,animal,1,0,animals,2,a_157.jpg,157,tbd,277.746130520014,284.761423295846,6.9584216203535,1,0.934253672489831,1,1,1
24,2,animal,0,0,animals,2,a_066.jpg,66,tbd,289.527365565617,298.725628642416,9.12444131352605,1,0.675682597646301,0,1,0
25,2,animal,0,0,animals,2,a_153.jpg,153,tbd,303.274958108079,311.906762719775,8.56602799014226,1,0.871123502999126,0,1,0
26,2,tool,0,0,animals,2,t_301.jpg,301,tbd,316.455939514271,326.287421014759,9.78137017195635,1,0.819131593288148,0,1,0
27,2,animal,0,0,animals,2,a_029.jpg,29,tbd,330.853429805539,337.96871578173,7.05741125127168,1,1.16339770041714,0,1,0
28,2,tool,0,0,animals,2,t_258.jpg,258,tbd,342.534669405617,352.182880715344,9.59284180517575,0,2.26003566319378,0,2,1
29,2,animal,0,0,animals,2,a_076.jpg,76,tbd,356.748830811116,363.947469471818,7.14407765336242,1,2.68702195999413,0,1,0
30,2,tool,0,0,animals,2,t_255.jpg,255,tbd,368.513418926115,376.82852259497,8.25477044913313,0,1.24944041242134,0,2,1
31,2,animal,1,0,animals,2,a_093.jpg,93,tbd,381.394469162626,389.976188009048,8.52551182053741,0,1.64739898080188,1,2,0
32,2,tool,0,0,animals,2,t_259.jpg,259,tbd,394.72547565051,403.390378152649,8.61834897214248,0,1.15189379960475,0,2,1
33,2,animal,1,0,animals,2,a_015.jpg,15,tbd,407.956424790483,415.588301247435,7.57681099888355,1,1.01454010412817,1,1,1
34,2,tool,0,0,animals,2,t_193.jpg,193,tbd,420.354237423189,427.469538794792,7.0556540260832,0,0.811853091569901,0,2,1
35,2,tool,0,0,animals,2,t_206.jpg,206,tbd,432.018849336928,439.034192468586,6.95289269133715,0,0.861402583328527,0,2,1
36,2,animal,1,0,animals,2,a_002.jpg,2,tbd,443.58346355998,449.648870646744,6.01344491372928,0,1.96660584766914,1,2,0
37,2,tool,0,0,animals,2,t_357.jpg,357,tbd,454.414895666854,461.030303202652,6.54693005010711,0,1.86564594373658,0,2,1
38,2,animal,1,0,animals,2,a_087.jpg,87,tbd,465.596240148177,475.461093449145,9.81250799359429,1,1.35559273975878,1,1,1
39,2,tool,0,0,animals,2,t_247.jpg,247,tbd,480.210321433386,489.192002496901,8.92442142660376,0,1.21624245180055,0,2,1
40,2,animal,1,0,animals,2,a_146.jpg,146,tbd,493.741286738542,500.689966774413,6.89119418161322,0,1.65584593013728,1,2,0
41,2,animal,0,0,animals,2,a_036.jpg,36,tbd,505.439204701524,514.820797626305,9.32519025311657,0,1.04067124994481,0,2,1
42,2,animal,1,0,animals,2,a_086.jpg,86,tbd,519.370079622782,529.118212608351,9.68565389513349,0,1.10189752016231,1,2,0
43,2,tool,0,0,animals,2,t_213.jpg,213,tbd,533.88419785698,541.049530147702,7.10505260038785,0,1.04015774881009,0,2,1
44,2,tool,0,0,animals,2,t_203.jpg,203,tbd,545.598790013274,551.830921392588,6.16895657872367,0,0.94132882647591,0,2,1
45,2,animal,0,0,animals,2,a_176.jpg,176,tbd,556.380228406609,565.478534526414,9.0235415506084,1,2.31442829494927,0,1,0
46,2,tool,0,0,animals,2,t_183.jpg,183,tbd,570.044460246117,578.109586687352,8.00446381581009,0,0.928089092970367,0,2,1
47,2,tool,0,0,animals,2,t_359.jpg,359,tbd,582.658874457109,592.090417154359,9.37016083882918,0,0.783725032533312,0,2,1
48,2,tool,0,0,animals,2,t_216.jpg,216,tbd,596.656421134073,605.054841244073,8.33822732180523,0,0.970918487430481,0,2,1
49,2,animal,0,0,animals,2,a_177.jpg,177,tbd,609.604127410141,618.702439944701,9.03380190417508,1,1.52198635168907,0,1,0
50,2,animal,1,0,animals,2,a_024.jpg,24,tbd,623.251726110768,632.783286384448,9.47252804885366,1,2.26283826963663,1,1,1
51,2,tool,0,0,animals,2,t_195.jpg,195,tbd,637.532529122624,644.031218267448,6.45186453665562,0,0.894377951952265,0,2,1
52,2,animal,1,0,animals,2,a_166.jpg,166,tbd,648.580590391232,656.362456327985,7.71574158057321,0,1.62773807757912,1,2,0
53,2,animal,0,0,animals,2,a_003.jpg,3,tbd,661.111695858784,668.593602400936,7.41834365185936,0,2.74122888459397,0,2,1
54,2,animal,1,0,animals,2,a_062.jpg,62,tbd,673.142864511673,681.991208799269,8.79060548040351,1,1.07017976424913,1,1,1
55,2,tool,0,0,animals,2,t_316.jpg,316,tbd,686.757167426665,694.639010847629,7.82912972491082,0,0.909905507815438,0,2,1
56,2,tool,0,0,animals,2,t_329.jpg,329,tbd,699.188299900336,707.453429420653,8.1984793123712,0,0.878072927788253,0,2,1
57,2,animal,1,0,animals,2,a_149.jpg,149,tbd,712.002661382042,718.801278168429,6.74253519466757,0,1.33977267106957,1,2,0
58,2,tool,0,0,animals,2,t_330.jpg,330,tbd,723.550655295722,732.815497755755,9.20406733198668,0,0.837217994905586,0,2,1
59,2,animal,1,0,animals,2,a_023.jpg,23,tbd,737.38157133556,745.146692516697,7.72165907220478,1,1.33666953335614,1,1,1
60,2,tool,0,0,animals,2,t_198.jpg,198,tbd,749.912642484174,759.227581614564,9.25178403740241,0,0.882434961162744,0,2,1
