trial,phase,object,toShock,seenBefore,shockedCategory,responseSide,filename,num,name,onsetFixationCross,onsetStimulus,interTrialTime,response,reactionTime,wasShocked,buttonPressed,isResponseCorrect
1,2,tool,0,0,animals,1,t_207.jpg,207,tbd,0.0285751414030528,6.46037233696188,6.31915346531482,1,0.963708300889266,0,1,0
2,2,tool,0,0,animals,1,t_210.jpg,210,tbd,11.0431422729525,19.7080924740694,8.60632606001786,0,2.02635197001837,0,2,1
3,2,tool,0,0,animals,1,t_247.jpg,247,tbd,24.2573870019169,31.2224490432473,6.91122014728072,0,1.35847698858015,0,2,1
4,2,animal,1,0,animals,1,a_056.jpg,56,tbd,35.7885584118776,42.237215351086,6.39104493168461,1,1.02411292062425,1,1,1
5,2,tool,0,0,animals,1,t_348.jpg,348,tbd,47.0031607601049,54.6515421240038,7.59212514582426,0,0.795244931525303,0,2,1
6,2,tool,0,0,animals,1,t_270.jpg,270,tbd,59.2175520648561,66.8326488577986,7.57213437772441,0,0.855602082514451,0,2,1
7,2,tool,0,0,animals,1,t_329.jpg,329,tbd,71.3819145195175,80.9800627252789,9.54897692304242,0,1.30073061857547,0,2,1
8,2,animal,0,0,animals,1,a_063.jpg,63,tbd,85.5459523905956,92.6945080738387,7.10744443936546,1,0.47170405820907,0,1,0
9,2,tool,0,0,animals,1,t_353.jpg,353,tbd,97.2438237701808,103.792419416977,6.49874548949363,0,0.969138661192119,0,2,1
10,2,tool,0,0,animals,1,t_209.jpg,209,tbd,108.358379643942,117.83983459947,9.42962565440841,0,0.58127026123293,0,2,1
11,2,animal,1,0,animals,1,a_128.jpg,128,tbd,122.389118863804,129.004396230419,6.5606053793325,1,1.24021983563398,1,1,1
12,2,animal,0,0,animals,1,a_127.jpg,127,tbd,133.753641942436,143.035143147918,9.22532533885941,1,1.29392815494793,0,1,0
13,2,animal,1,0,animals,1,a_138.jpg,138,tbd,147.601082527122,156.49931178256,8.84464953140511,1,1.09525766469415,1,1,1
14,2,tool,0,0,animals,1,t_334.jpg,334,tbd,161.24855781531,167.730557057736,6.41917710730186,0,0.503410934858039,0,2,1
15,2,tool,0,0,animals,1,t_227.jpg,227,tbd,172.296497078409,179.578346601846,7.22119539292675,0,0.659146265814343,0,2,1
16,2,tool,0,0,animals,1,t_187.jpg,187,tbd,184.127583076701,192.375952701708,8.19785114219273,0,0.463922070610352,0,2,1
17,2,animal,1,0,animals,1,a_058.jpg,58,tbd,196.941940832598,204.923600898008,7.93712594340247,0,1.24490544981381,1,2,0
18,2,animal,0,0,animals,1,a_088.jpg,88,tbd,209.672874834683,216.688135715531,6.96292958784674,0,1.22772465066373,0,2,1
19,2,tool,0,0,animals,1,t_277.jpg,277,tbd,221.254024739377,231.268726900264,9.95571861590189,0,0.874711780541475,0,2,1
20,2,tool,0,0,animals,1,t_292.jpg,292,tbd,235.818012126803,245.482742303871,9.60511011041397,0,0.7661809093388,0,2,1
21,2,tool,0,0,animals,1,t_241.jpg,241,tbd,250.048665967073,259.013574055716,8.92270951428739,0,0.657930360319369,0,2,1
22,2,animal,0,0,animals,1,a_159.jpg,159,tbd,263.57952145329,271.19467277114,7.56415287424655,1,1.38531286635589,0,1,0
23,2,animal,1,0,animals,1,a_012.jpg,12,tbd,275.760577190256,283.808992103011,7.99512572595147,1,1.27839047999987,1,1,1
24,2,tool,0,0,animals,1,t_325.jpg,325,tbd,288.574849951439,296.589918712161,7.95712128535466,0,0.547941108143277,0,2,1
25,2,animal,0,0,animals,1,a_034.jpg,34,tbd,301.139159035834,310.753956262506,9.55396990294675,1,0.885504505376957,0,1,0
26,2,tool,0,0,animals,1,t_342.jpg,342,tbd,315.3198632475,323.368297725076,7.98913715574869,0,0.671628942127427,0,2,1
27,2,animal,0,0,animals,1,a_097.jpg,97,tbd,327.917519766866,335.082647494675,7.11467158748726,1,0.968728120693413,0,1,0
28,2,tool,0,0,animals,1,t_265.jpg,265,tbd,339.665355208122,348.11364458529,8.40195246523745,0,0.76722810834508,0,2,1
29,2,animal,1,0,animals,1,a_061.jpg,61,tbd,352.679614755032,362.627527108485,9.90126664495268,1,1.04885889067191,1,1,1
30,2,animal,1,0,animals,1,a_035.jpg,35,tbd,367.393489195711,376.408396947581,8.9522578691006,1,1.0725502848145,1,1,1
31,2,animal,1,0,animals,1,a_161.jpg,161,tbd,381.174292001242,387.95622539682,6.73181853162375,0,1.16810230302144,1,2,0
32,2,tool,0,0,animals,1,t_261.jpg,261,tbd,392.722177541269,399.804037392363,7.03676320587402,0,0.634706918202937,0,2,1
33,2,animal,0,0,animals,1,a_146.jpg,146,tbd,404.369963621444,412.051814620259,7.63392618403939,0,1.6694999047595,0,2,1
34,2,animal,1,0,animals,1,a_045.jpg,45,tbd,416.617686645164,425.432636156702,8.76031353093478,0,0.631173062562084,1,2,0
35,2,animal,0,0,animals,1,a_067.jpg,67,tbd,430.198530889627,437.213762262876,6.95894375492248,1,1.06144003255758,0,1,0
36,2,tool,0,0,animals,1,t_296.jpg,296,tbd,441.763021830633,450.311298987808,8.50688791639849,0,0.591481493940591,0,2,1
37,2,animal,1,0,animals,1,a_136.jpg,136,tbd,454.860562083648,463.258744672177,8.33678127685175,0,1.76837313145552,1,2,0
38,2,animal,1,0,animals,1,a_100.jpg,100,tbd,468.024808432325,477.472937762845,9.4023695604903,1,0.527802172256997,1,1,1
39,2,animal,1,0,animals,1,a_144.jpg,144,tbd,482.222167117388,490.337164322185,8.06229619034116,1,0.460061706979104,1,1,1
40,2,tool,0,0,animals,1,t_297.jpg,297,tbd,495.086436655187,501.251665735183,6.12350671997364,0,0.603995602261421,0,2,1
41,2,tool,0,0,animals,1,t_239.jpg,239,tbd,505.817735974171,514.832645971184,8.96717320593448,0,0.426437157171677,0,2,1
42,2,animal,1,0,animals,1,a_032.jpg,32,tbd,519.381954932098,526.497141049671,7.05381462148723,0,0.744406867621365,1,2,0
43,2,animal,1,0,animals,1,a_114.jpg,114,tbd,531.263006274998,537.72827952017,6.42443919904108,0,0.955771398397701,1,2,0
44,2,tool,0,0,animals,1,t_335.jpg,335,tbd,542.477614396452,549.42604345361,6.90490616853066,0,0.457354705564285,0,2,1
45,2,tool,0,0,animals,1,t_272.jpg,272,tbd,553.975500593984,560.190682189195,6.16761711114814,0,0.486118520013406,0,2,1
46,2,animal,1,0,animals,1,a_179.jpg,179,tbd,564.75682812159,571.672025529026,6.86130494668448,0,0.749214040279185,1,2,0
47,2,tool,0,0,animals,1,t_249.jpg,249,tbd,576.437976069801,586.21936966877,9.71925853461244,0,0.66549681415745,0,2,1
48,2,animal,1,0,animals,1,a_129.jpg,129,tbd,590.785296218584,597.817178537151,6.97865970963085,1,1.08697725527054,1,1,1
49,2,animal,1,0,animals,1,a_109.jpg,109,tbd,602.583096362978,611.364655461086,8.72929294222664,1,0.952086797418815,1,1,1
50,2,tool,0,0,animals,1,t_357.jpg,357,tbd,616.130586437039,623.029169142186,6.84074951513588,0,0.485074849088051,0,2,1
51,2,animal,1,0,animals,1,a_143.jpg,143,tbd,627.595140274134,635.693449969849,8.04272024919382,1,1.37429755159246,1,1,1
52,2,animal,1,0,animals,1,a_003.jpg,3,tbd,640.44272486873,646.824810100145,6.31692940152661,1,0.690271971070615,1,1,1
53,2,tool,0,0,animals,1,t_358.jpg,358,tbd,651.573987495656,660.622165385421,9.0006192169001,0,0.522502030267788,0,2,1
54,2,tool,0,0,animals,1,t_255.jpg,255,tbd,665.171469535311,673.303144627145,8.08089472215971,0,0.483997501012709,0,2,1
55,2,tool,0,0,animals,1,t_192.jpg,192,tbd,677.869115759093,687.833789711356,9.89302999609548,0,0.4858346697456,0,2,1
56,2,animal,1,0,animals,1,a_084.jpg,84,tbd,692.399753787138,701.681093342298,9.23861533172573,1,0.52505636193564,1,1,1
57,2,animal,0,0,animals,1,a_113.jpg,113,tbd,706.430444576054,713.17901578286,6.70250125988157,1,0.581640389151289,0,1,0
58,2,tool,0,0,animals,1,t_320.jpg,320,tbd,717.745006800362,724.51013241132,6.71102962595378,0,0.543885417042475,0,2,1
59,2,tool,0,0,animals,1,t_278.jpg,278,tbd,729.076211630883,735.175037388835,6.03301636582512,0,0.546361810160306,0,2,1
60,2,animal,0,0,animals,1,a_082.jpg,82,tbd,739.724211961882,748.889077649388,9.11195300351517,0,0.654929245125459,0,2,1
