trial,phase,object,toShock,seenBefore,shockedCategory,responseSide,filename,num,name,onsetFixationCross,onsetStimulus,interTrialTime,response,reactionTime,wasShocked,buttonPressed,isResponseCorrect
1,3,animal,0,0,animals,2,a_136.jpg,136,tbd,0.0153986061814066,6.08073121722464,5.98148153203236,animal,0.708274771175638,0,2,1
2,3,animal,0,0,animals,2,a_000.jpg,0,tbd,8.66372738029895,13.2293994869133,4.50970442999775,animal,0.649851063383721,0,2,1
3,3,tool,0,0,animals,2,t_248.jpg,248,tbd,15.7956630246399,20.5780122056967,4.72885496293499,tool,0.733455496038914,0,1,1
4,3,tool,0,0,animals,2,t_211.jpg,211,tbd,23.144266762908,27.7599215339196,4.55292981077195,tool,0.57879978816618,0,1,1
5,3,tool,0,0,animals,2,t_229.jpg,229,tbd,30.3262200315112,38.0246062007473,7.65164193843856,tool,1.04228068099656,0,1,1
6,3,animal,0,0,animals,2,a_144.jpg,144,tbd,40.5742099194504,45.523188401814,4.88645989012651,animal,1.09706503475718,0,2,1
7,3,tool,0,0,animals,2,t_215.jpg,215,tbd,48.0728030254286,53.4383289420748,5.30332722839673,tool,0.772144520340589,0,1,1
8,3,tool,0,0,animals,2,t_278.jpg,278,tbd,55.9879381132341,61.6867463667131,5.64321403125433,tool,0.879009130405393,0,1,1
9,3,tool,0,0,animals,2,t_311.jpg,311,tbd,64.2529916226758,70.2184612186584,5.91791636589005,tool,0.733534396284085,0,1,1
10,3,animal,0,0,animals,2,a_010.jpg,10,tbd,72.7846958904411,77.7835473466157,4.94941137576068,animal,1.06277389733987,0,2,1
11,3,animal,0,0,animals,2,a_077.jpg,77,tbd,80.3332322106944,87.1818110921777,6.78820515105182,animal,0.65074783203363,0,2,1
12,3,tool,0,0,animals,2,t_345.jpg,345,tbd,89.7481127970959,94.3638009243086,4.55478800243125,tool,0.959026809192437,0,1,1
13,3,animal,0,0,animals,2,a_028.jpg,28,tbd,96.9134033600812,104.42853023713,7.45792446077058,animal,0.896586565703728,0,2,1
14,3,tool,0,0,animals,2,t_213.jpg,213,tbd,106.978068847094,112.260198165879,5.23066506332063,tool,1.04614935891459,0,1,1
15,3,tool,0,0,animals,2,t_222.jpg,222,tbd,114.809959364342,119.408990238393,4.54512409653118,tool,0.928583822798828,0,1,1
16,3,animal,0,0,animals,2,a_082.jpg,82,tbd,121.975277189607,127.340778089102,5.30473713212397,animal,0.924051228176722,0,2,1
17,3,animal,0,0,animals,2,a_054.jpg,54,tbd,129.907040985364,134.772534026907,4.81496842263488,animal,1.42756501535314,0,2,1
18,3,animal,0,0,animals,2,a_006.jpg,6,tbd,137.322289131448,143.054453586503,5.67055009951056,animal,0.576776606248131,0,2,1
19,3,tool,0,0,animals,2,t_191.jpg,191,tbd,145.604021703875,151.636147254052,5.9796671393614,tool,0.828426054379634,0,1,1
20,3,animal,0,0,animals,2,a_156.jpg,156,tbd,154.18569580673,159.018026369254,4.77893427811894,animal,0.71677579158677,0,2,1
21,3,animal,0,0,animals,2,a_065.jpg,65,tbd,161.584284775256,168.682741377395,7.03762666972324,animal,0.685364192417182,0,2,1
22,3,animal,0,0,animals,2,a_152.jpg,152,tbd,171.249095361745,176.114751014772,4.81945872953096,animal,1.30261236351816,0,2,1
23,3,tool,0,0,animals,2,t_281.jpg,281,tbd,178.6809969122,184.096517681086,5.35026152573202,tool,1.03825195745776,0,1,1
24,3,tool,0,0,animals,2,t_267.jpg,267,tbd,186.662790840794,190.945154935922,4.22364062959551,tool,1.00859765279256,0,1,1
25,3,animal,0,0,animals,2,a_173.jpg,173,tbd,193.494781426647,201.376534974993,7.82432946235839,animal,0.960525913867059,0,2,1
26,3,tool,0,0,animals,2,t_226.jpg,226,tbd,203.92611303508,209.35831735721,5.36596699905554,tool,1.81803591832158,0,1,1
27,3,animal,0,0,animals,2,a_055.jpg,55,tbd,211.924596610839,217.373321233265,5.38700602039717,animal,0.859317104364891,0,2,1
28,3,tool,0,0,animals,2,t_196.jpg,196,tbd,219.939694461577,226.488360678576,6.49702295782832,tool,1.08749084270767,0,1,1
29,3,animal,0,0,animals,2,a_128.jpg,128,tbd,229.03793136181,235.936556092035,6.84559165115265,animal,0.702667721983744,0,2,1
30,3,animal,0,0,animals,2,a_155.jpg,155,tbd,238.502818026098,244.96818514798,6.40943191954115,animal,1.12932657560214,0,2,1
31,3,animal,0,0,animals,2,a_018.jpg,18,tbd,247.534404424593,254.799604508882,7.21023035021489,animal,0.887205454743707,0,2,1
32,3,tool,0,0,animals,2,t_318.jpg,318,tbd,257.34917326772,261.84814323463,4.45023432406099,tool,1.31890173626562,0,1,1
33,3,tool,0,0,animals,2,t_228.jpg,228,tbd,264.414485993336,270.013345596121,5.54837700102417,tool,0.929878620738236,0,1,1
34,3,tool,0,0,animals,2,t_315.jpg,315,tbd,272.562942579438,278.61155411151,5.99909244082982,tool,0.800967165096154,0,1,1
35,3,animal,0,0,animals,2,a_148.jpg,148,tbd,281.177933433744,287.893217405673,6.65977905711358,animal,0.624584702888569,0,2,1
36,3,tool,0,0,animals,2,t_207.jpg,207,tbd,290.442828501228,297.907921075913,7.40961170390451,tool,1.06330567216901,0,1,1
37,3,tool,0,0,animals,2,t_359.jpg,359,tbd,300.45755366056,304.540026548222,4.01825691596775,tool,0.630267444999845,0,1,1
38,3,tool,0,0,animals,2,t_297.jpg,297,tbd,307.1062807847,311.388692989734,4.22770016684666,tool,0.648936654435602,0,1,1
39,3,animal,0,0,animals,2,a_176.jpg,176,tbd,313.954951395738,320.003565172939,5.9876857876135,animal,0.440240692684711,0,2,1
40,3,tool,0,0,animals,2,t_243.jpg,243,tbd,322.553307448173,329.951761067497,7.3215464500545,tool,0.745338322117277,0,1,1
41,3,tool,0,0,animals,2,t_300.jpg,300,tbd,332.518062772416,336.917106219189,4.35034161192642,tool,0.793277598434543,0,1,1
42,3,animal,0,0,animals,2,a_103.jpg,103,tbd,339.483372002045,345.16550504133,5.615725807434,animal,0.93714706535502,0,2,1
43,3,animal,0,0,animals,2,a_119.jpg,119,tbd,347.715071234306,353.530590271236,5.76622987711435,animal,0.780316468993988,0,2,1
44,3,tool,0,0,animals,2,t_316.jpg,316,tbd,356.096860865083,360.395813897306,4.25053480041735,tool,0.851241375524296,0,1,1
45,3,tool,0,0,animals,2,t_252.jpg,252,tbd,362.962159863338,370.693956117244,7.67282135499704,tool,0.924454709922429,0,1,1
46,3,tool,0,0,animals,2,t_276.jpg,276,tbd,373.243527121212,380.508694811497,7.20708558865896,tool,0.942066142888507,0,1,1
47,3,animal,0,0,animals,2,a_011.jpg,11,tbd,383.058334772995,390.373493466728,7.26458857772616,animal,0.870513562450469,0,2,1
48,3,tool,0,0,animals,2,t_254.jpg,254,tbd,392.9230105876,398.688524508843,5.70873861249569,tool,0.780839263306916,0,1,1
49,3,tool,0,0,animals,2,t_233.jpg,233,tbd,401.254841929665,408.320009684096,6.99790602564362,tool,0.941620645157855,0,1,1
50,3,tool,0,0,animals,2,t_217.jpg,217,tbd,410.886324218323,415.152089433643,4.21938348003809,tool,0.780754269139834,0,1,1
51,3,animal,0,0,animals,2,a_078.jpg,78,tbd,417.701670059591,424.383624771492,6.62505281115964,animal,0.683432419319615,0,2,1
52,3,animal,0,0,animals,2,a_139.jpg,139,tbd,426.933173324169,431.998817045938,5.00789920251849,animal,0.67654949541793,0,2,1
53,3,animal,0,0,animals,2,a_094.jpg,94,tbd,434.548407614601,441.680280074598,7.07455243035393,animal,0.90839049153692,0,2,1
54,3,tool,0,0,animals,2,t_282.jpg,282,tbd,444.229862945675,450.495222754853,6.20568808902431,tool,0.832910218361576,0,1,1
55,3,animal,0,0,animals,2,a_166.jpg,166,tbd,453.061520931711,460.793223210934,7.67565968808734,animal,1.13110888725805,0,2,1
56,3,animal,0,0,animals,2,a_142.jpg,142,tbd,463.359531971973,471.224568290141,7.80873125692169,animal,0.545956438190842,0,2,1
57,3,animal,0,0,animals,2,a_108.jpg,108,tbd,473.77419638453,479.222998945003,5.39468201886697,animal,0.4848494805683,0,2,1
58,3,tool,0,0,animals,2,t_210.jpg,210,tbd,481.789302574319,487.354781599843,5.51145586535789,tool,0.527316415431415,0,1,1
59,3,animal,0,0,animals,2,a_002.jpg,2,tbd,489.904427655263,494.603305828473,4.64477844468957,animal,0.586937097687041,0,2,1
60,3,animal,0,0,animals,2,a_105.jpg,105,tbd,497.169684829973,502.585219711099,5.34099149966436,animal,0.573550676676859,0,2,1
