trial,phase,object,toShock,seenBefore,shockedCategory,responseSide,filename,num,name,onsetFixationCross,onsetStimulus,interTrialTime,response,reactionTime,wasShocked,buttonPressed,isResponseCorrect
1,1,tool,0,0,animals,2,t_288.jpg,288,tbd,0.032659684442649,6.63123907280857,6.412657872253,tool,1.28744268221715,0,1,1
2,1,tool,0,0,animals,2,t_180.jpg,180,tbd,9.23110205364259,14.8633810364677,5.5839996536641,tool,1.13961978590385,0,1,1
3,1,tool,0,0,animals,2,t_322.jpg,322,tbd,17.4129860158571,25.3114734807844,7.84683970900231,tool,0.794011070561282,0,1,1
4,1,animal,0,0,animals,2,a_026.jpg,26,tbd,27.8611461358386,32.293625066576,4.38737737170186,animal,0.893129619081833,0,2,1
5,1,tool,0,0,animals,2,t_189.jpg,189,tbd,34.8432399888356,39.0424206963317,4.13457350126772,tool,0.935680933914114,0,1,1
6,1,animal,0,0,animals,2,a_051.jpg,51,tbd,41.6086937750164,48.7073927985624,7.04502346974926,animal,0.80117795554338,0,2,1
7,1,animal,0,0,animals,2,a_064.jpg,64,tbd,51.2570096452485,56.3226768503269,5.0045757474021,animal,0.731319991047826,0,2,1
8,1,tool,0,0,animals,2,t_342.jpg,342,tbd,58.8723325062805,66.7041825344413,7.78604842967641,tool,0.816301381843687,0,1,1
9,1,animal,0,0,animals,2,a_060.jpg,60,tbd,69.2704799891948,75.2693086549386,5.94617356510027,animal,0.799587417050361,0,2,1
10,1,animal,0,0,animals,2,a_142.jpg,142,tbd,77.8356465226483,83.2345974536218,5.352236399852,animal,0.731679858801158,0,2,1
11,1,tool,0,0,animals,2,t_300.jpg,300,tbd,85.8009125489514,93.7494004629116,7.88114844248261,tool,0.989379489182966,0,1,1
12,1,tool,0,0,animals,2,t_291.jpg,291,tbd,96.2990464967327,101.34803213153,5.00712110225967,tool,0.874026799540388,0,1,1
13,1,animal,0,0,animals,2,a_050.jpg,50,tbd,103.897715691668,108.980046184976,5.02651660221839,animal,0.958006205611014,0,2,1
14,1,animal,0,0,animals,2,a_134.jpg,134,tbd,111.513034062372,117.145305668229,5.56398536520587,animal,0.787566166250144,0,2,1
15,1,animal,0,0,animals,2,a_067.jpg,67,tbd,119.694856763676,125.293813660372,5.55486359606692,animal,0.989444278208111,0,2,1
16,1,tool,0,0,animals,2,t_305.jpg,305,tbd,127.843446864683,135.492027343557,7.59398479753577,tool,0.965666064512106,0,1,1
17,1,animal,0,0,animals,2,a_061.jpg,61,tbd,138.05832351536,143.923954926106,5.80545325473144,animal,0.898110997048207,0,2,1
18,1,animal,0,0,animals,2,a_055.jpg,55,tbd,146.490155518059,153.33887955915,6.78726441232636,animal,0.880691409209021,0,2,1
19,1,animal,0,0,animals,2,a_001.jpg,1,tbd,155.9051888812,161.420736322803,5.45150690019928,animal,0.72620262027624,0,2,1
20,1,tool,0,0,animals,2,t_263.jpg,263,tbd,163.970408015644,170.85244901106,6.82773382212943,tool,1.04688231488251,0,1,1
21,1,animal,0,0,animals,2,a_096.jpg,96,tbd,173.402141872592,177.934485387853,4.47191766384584,animal,0.699112789330684,0,2,1
22,1,animal,0,0,animals,2,a_022.jpg,22,tbd,180.500818123758,187.86605983814,7.30511399400674,animal,0.849066987980223,0,2,1
23,1,animal,0,0,animals,2,a_107.jpg,107,tbd,190.432414063475,197.064461473646,6.57720288618021,animal,0.745013247729048,0,2,1
24,1,tool,0,0,animals,2,t_208.jpg,208,tbd,199.614118412551,204.163218871462,4.49871040204944,tool,1.02575788531465,0,1,1
25,1,animal,0,0,animals,2,a_031.jpg,31,tbd,206.712866188234,211.145273915192,4.37950116217896,animal,0.93802103652456,0,2,1
26,1,tool,0,0,animals,2,t_338.jpg,338,tbd,213.69497158779,218.827214006512,5.08600672878235,tool,0.756359666307276,0,1,1
27,1,animal,0,0,animals,2,a_155.jpg,155,tbd,221.37694022477,228.375643161317,6.95238272288043,animal,0.895465872839281,0,2,1
28,1,tool,0,0,animals,2,t_352.jpg,352,tbd,230.941924258445,238.040571963951,7.04151515582424,tool,0.971999031349128,0,1,1
29,1,tool,0,0,animals,2,t_339.jpg,339,tbd,240.590212224493,247.072292927242,6.43404691198976,tool,0.888580274862193,0,1,1
30,1,tool,0,0,animals,2,t_295.jpg,295,tbd,249.621975525167,256.154062129491,6.46845551979686,tool,0.73734857776185,0,1,1
31,1,animal,0,0,animals,2,a_027.jpg,27,tbd,258.703665825929,265.302410394235,6.53743420544692,animal,0.893370493130647,0,2,1
32,1,tool,0,0,animals,2,t_199.jpg,199,tbd,267.852058031745,272.351172474823,4.45380912173918,tool,1.22894909761351,0,1,1
33,1,animal,0,0,animals,2,a_071.jpg,71,tbd,274.917474419905,282.066100443539,7.08648438846667,animal,0.717696975933336,0,2,1
34,1,animal,0,0,animals,2,a_171.jpg,171,tbd,284.632414255918,292.180988704922,7.49703317874121,animal,0.773143872667333,0,2,1
35,1,animal,0,0,animals,2,a_109.jpg,109,tbd,294.730637946121,300.796156328884,6.00389707108504,animal,0.702365390834643,0,2,1
36,1,tool,0,0,animals,2,t_315.jpg,315,tbd,303.362455066589,310.24449959012,6.82245826821028,tool,0.731414608683508,0,1,1
37,1,tool,0,0,animals,2,t_323.jpg,323,tbd,312.793990707609,317.693140495986,4.83544017541206,tool,0.973107501006666,0,1,1
38,1,tool,0,0,animals,2,t_347.jpg,347,tbd,320.242797434891,327.20811093038,6.90069260138856,tool,1.45867269865175,0,1,1
39,1,animal,0,0,animals,2,a_118.jpg,118,tbd,329.757735474772,337.689466445081,7.87336326657408,animal,1.15880214840683,0,2,1
40,1,animal,0,0,animals,2,a_014.jpg,14,tbd,340.2392382081,346.538033324675,6.25245619669816,animal,1.01963468096494,0,2,1
41,1,tool,0,0,animals,2,t_277.jpg,277,tbd,349.104376003451,354.136729782319,4.97264008593281,tool,1.02623482234617,0,1,1
42,1,animal,0,0,animals,2,a_125.jpg,125,tbd,356.686352081547,363.885005175447,7.13061901291806,animal,1.72248976010371,0,2,1
43,1,animal,0,0,animals,2,a_104.jpg,104,tbd,366.434620418445,371.966878296726,5.47172704450125,animal,0.818017328796145,0,2,1
44,1,animal,0,0,animals,2,a_113.jpg,113,tbd,374.533208145992,378.882279225326,4.28720678016503,animal,0.827843450448086,0,2,1
45,1,tool,0,0,animals,2,t_273.jpg,273,tbd,381.43201602793,385.481190256523,4.00192306229128,tool,1.28433345048654,0,1,1
46,1,tool,0,0,animals,2,t_246.jpg,246,tbd,388.047485145375,394.87951254151,6.76896946806458,tool,0.978365354911944,0,1,1
47,1,tool,0,0,animals,2,t_242.jpg,242,tbd,397.445818014708,402.561416068728,5.05900402454919,tool,1.13484111419439,0,1,1
48,1,animal,0,0,animals,2,a_045.jpg,45,tbd,405.127801084886,411.209970247106,6.02331372539937,animal,0.855670978214334,0,2,1
49,1,tool,0,0,animals,2,t_202.jpg,202,tbd,413.759603451418,418.275383107151,4.45004383498869,tool,1.15367355181411,0,1,1
50,1,tool,0,0,animals,2,t_253.jpg,253,tbd,420.841696278054,426.557251609806,5.66642447661232,tool,0.804178457177272,0,1,1
51,1,tool,0,0,animals,2,t_324.jpg,324,tbd,429.106891228872,433.339399795777,4.16923880251557,tool,0.739248948919567,0,1,1
52,1,animal,0,0,animals,2,a_020.jpg,20,tbd,435.889023377956,442.920952179308,6.97210789543445,animal,0.927273756060004,0,2,1
53,1,animal,0,0,animals,2,a_169.jpg,169,tbd,445.47065787035,452.002733248853,6.47839690918608,animal,0.822906013553279,0,2,1
54,1,animal,0,0,animals,2,a_168.jpg,168,tbd,454.552389225544,459.568079395445,4.96271695773114,animal,0.775841918604669,0,2,1
55,1,tool,0,0,animals,2,t_245.jpg,245,tbd,462.117706185001,466.716896578777,4.54184334215958,tool,0.92136544600146,0,1,1
56,1,tool,0,0,animals,2,t_210.jpg,210,tbd,469.266440938733,476.664918140052,7.32928678899569,tool,0.913805657277862,0,1,1
57,1,tool,0,0,animals,2,t_297.jpg,297,tbd,479.231352229086,487.113203027018,7.82288221916664,tool,1.12903351578882,0,1,1
58,1,animal,0,0,animals,2,a_030.jpg,30,tbd,489.662858362233,494.661875942511,4.94343059907395,animal,0.78383887287896,0,2,1
59,1,tool,0,0,animals,2,t_182.jpg,182,tbd,497.211527749611,501.360776966691,4.099475697258,tool,1.42121085040685,0,1,1
60,1,tool,0,0,animals,2,t_345.jpg,345,tbd,503.910331590254,509.076004825202,5.11980462725889,tool,0.946283882392095,0,1,1
