trial,phase,object,toShock,seenBefore,shockedCategory,responseSide,filename,num,name,onsetFixationCross,onsetStimulus,interTrialTime,response,reactionTime,wasShocked,buttonPressed,isResponseCorrect
1,3,animal,0,0,animals,2,a_111.jpg,111,tbd,0.0154384681254669,5.08082923051552,4.98872462363619,animal,1.95540577954398,0,2,1
2,3,animal,0,0,animals,2,a_075.jpg,75,tbd,7.64730455751214,14.2626656358998,6.56966130658135,animal,1.03688491847424,0,2,1
3,3,animal,0,0,animals,2,a_165.jpg,165,tbd,16.8289732186149,23.9275305215688,7.04909533862823,animal,1.13543356158971,0,2,1
4,3,tool,0,0,animals,2,t_248.jpg,248,tbd,26.493832331058,34.3255800051702,7.78783087628242,tool,1.12580831129617,0,1,1
5,3,animal,0,0,animals,2,a_020.jpg,20,tbd,36.875222850972,41.4909187764542,4.56036406325613,animal,1.06464964412862,0,2,1
6,3,animal,0,0,animals,2,a_003.jpg,3,tbd,44.0572225103524,49.2061537740055,5.10734579818763,animal,1.49789239127313,0,2,1
7,3,tool,0,0,animals,2,t_193.jpg,193,tbd,51.7724443577781,56.5714328244767,4.75059072492625,tool,0.768794595715008,0,1,1
8,3,animal,0,0,animals,2,a_125.jpg,125,tbd,59.1377692733204,64.7866436065533,5.60620317627885,animal,1.00786772356241,0,2,1
9,3,animal,0,0,animals,2,a_035.jpg,35,tbd,67.3362332103843,73.9847140020602,6.60899484780699,animal,0.952158660785244,0,2,1
10,3,animal,0,0,animals,2,a_102.jpg,102,tbd,76.551188046119,82.6999865255793,6.10216354873793,animal,0.967136653569469,0,2,1
11,3,tool,0,0,animals,2,t_324.jpg,324,tbd,85.2495732427979,91.5649565481044,6.27420596008674,tool,0.862492766982541,0,1,1
12,3,animal,0,0,animals,2,a_122.jpg,122,tbd,94.1145406994456,101.013199418732,6.854072826332,animal,1.28462943142404,0,2,1
13,3,animal,0,0,animals,2,a_148.jpg,148,tbd,103.562835849839,110.328151015045,6.7199074061687,animal,1.02708775434712,0,2,1
14,3,tool,0,0,animals,2,t_304.jpg,304,tbd,112.877735166386,118.293269184958,5.36365750998588,tool,1.3294559636297,0,1,1
15,3,tool,0,0,animals,2,t_213.jpg,213,tbd,120.859571315182,127.524790292032,6.62414056462467,tool,1.36197397849992,0,1,1
16,3,tool,0,0,animals,2,t_284.jpg,284,tbd,130.074579713622,135.073548872087,4.9557667364923,tool,1.02755346122558,0,1,1
17,3,animal,0,0,animals,2,a_149.jpg,149,tbd,137.623184020256,145.538077371136,7.85694190273767,animal,1.31846598691209,0,2,1
18,3,animal,0,0,animals,2,a_074.jpg,74,tbd,148.104533454047,155.536215505826,7.37084678424124,animal,1.47974489754324,0,2,1
19,3,tool,0,0,animals,2,t_322.jpg,322,tbd,158.102686021801,163.551550155668,5.39885604885458,tool,1.80671346329109,0,1,1
20,3,tool,0,0,animals,2,t_331.jpg,331,tbd,166.101190435593,172.333254225889,6.18328430489239,tool,1.00235685883308,0,1,1
21,3,tool,0,0,animals,2,t_196.jpg,196,tbd,174.899540319375,179.431918974989,4.48965570559426,tool,0.985857300323914,0,1,1
22,3,animal,0,0,animals,2,a_170.jpg,170,tbd,181.9982255955,187.630440002841,5.58949265238013,animal,1.78774745444025,0,2,1
23,3,tool,0,0,animals,2,t_233.jpg,233,tbd,190.180037304307,196.32876393918,6.10568662756973,tool,1.54071593487333,0,1,1
24,3,animal,0,0,animals,2,a_142.jpg,142,tbd,198.878439499929,204.660556355792,5.7385439082697,animal,1.77819757681664,0,2,1
25,3,tool,0,0,animals,2,t_289.jpg,289,tbd,207.226850467647,213.242291601431,5.95798782868223,tool,0.857751665688738,0,1,1
26,3,animal,0,0,animals,2,a_155.jpg,155,tbd,215.791965558506,220.640814168811,4.79964698245267,animal,1.59060751048582,0,2,1
27,3,tool,0,0,animals,2,t_319.jpg,319,tbd,223.190534953161,229.056051186991,5.81381016123978,tool,0.779654995588317,0,1,1
28,3,animal,0,0,animals,2,a_073.jpg,73,tbd,231.62234626105,238.387649879804,6.72497263355906,animal,0.989362289834389,0,2,1
29,3,tool,0,0,animals,2,t_330.jpg,330,tbd,240.937245898331,247.569242526767,6.58858016160323,tool,1.70807982546285,0,1,1
30,3,animal,0,0,animals,2,a_136.jpg,136,tbd,250.118900767839,255.184490065048,5.00255298451018,animal,1.55223095440124,0,2,1
31,3,animal,0,0,animals,2,a_007.jpg,7,tbd,257.75079476115,264.266140155607,6.4733156844445,,2.50452390327155,0,,0
32,3,tool,0,0,animals,2,t_200.jpg,200,tbd,266.782437170112,272.531225514354,5.69582836069587,tool,0.631131065087175,0,1,1
33,3,animal,0,0,animals,2,a_004.jpg,4,tbd,275.097581207284,281.096359528565,5.94278479229265,animal,1.19725679118983,0,2,1
34,3,tool,0,0,animals,2,t_320.jpg,320,tbd,283.645966452073,290.877765636188,7.19294842580242,tool,0.921282166441415,0,1,1
35,3,animal,0,0,animals,2,a_068.jpg,68,tbd,293.427506947563,299.109661361467,5.63320607779179,animal,1.44964746794358,0,2,1
36,3,tool,0,0,animals,2,t_292.jpg,292,tbd,301.67598562239,307.85786821358,6.13497125353402,tool,1.14883802961776,0,1,1
37,3,animal,0,0,animals,2,a_116.jpg,116,tbd,310.424356049233,315.456643135073,4.97289031660346,animal,1.51129621783093,0,2,1
38,3,tool,0,0,animals,2,t_223.jpg,223,tbd,318.006268340463,324.20498084697,6.15371525789027,tool,0.945260618197608,0,1,1
39,3,tool,0,0,animals,2,t_335.jpg,335,tbd,326.754601562074,334.169788866366,7.36120342220982,tool,1.52192536793882,0,1,1
40,3,animal,0,0,animals,2,a_043.jpg,43,tbd,336.719460899032,341.70156838944,4.92794235787706,animal,1.01941417509715,0,2,1
41,3,tool,0,0,animals,2,t_267.jpg,267,tbd,344.284711660697,348.967003669814,4.63341213780144,tool,0.773227470900565,0,1,1
42,3,tool,0,0,animals,2,t_333.jpg,333,tbd,351.516675061011,355.68246510611,4.12430698976026,tool,1.3399603479138,0,1,1
43,3,tool,0,0,animals,2,t_230.jpg,230,tbd,358.232123667916,365.347327425901,7.0609592780717,tool,0.850461364482726,0,1,1
44,3,animal,0,0,animals,2,a_084.jpg,84,tbd,367.913649441681,373.795810847602,5.82911620686719,animal,1.10937129606646,0,2,1
45,3,animal,0,0,animals,2,a_052.jpg,52,tbd,376.345417129642,382.644144037139,6.25485052977692,animal,0.897377483682249,0,2,1
46,3,tool,0,0,animals,2,t_191.jpg,191,tbd,385.210420829317,391.909021880493,6.64849112695847,tool,0.891846091927619,0,1,1
47,3,animal,0,0,animals,2,a_117.jpg,117,tbd,394.458682045973,402.157150954426,7.65289979570013,animal,0.857198398218316,0,2,1
48,3,animal,0,0,animals,2,a_055.jpg,55,tbd,404.706807912558,411.238812270703,6.48155082160766,animal,0.939791448986398,0,2,1
49,3,tool,0,0,animals,2,t_189.jpg,189,tbd,413.78844741887,418.087534511509,4.25121880146247,tool,1.35634700778519,0,1,1
50,3,animal,0,0,animals,2,a_019.jpg,19,tbd,420.637144000896,426.269332428722,5.58284946470173,animal,1.07784435162012,0,2,1
51,3,tool,0,0,animals,2,t_327.jpg,327,tbd,428.818963086604,435.467607773744,6.5985899621853,tool,0.973790296266088,0,1,1
52,3,animal,0,0,animals,2,a_044.jpg,44,tbd,438.017286541841,442.483020362135,4.41651873328554,animal,1.69778488098018,0,2,1
53,3,tool,0,0,animals,2,t_295.jpg,295,tbd,445.049261552754,449.165058349319,4.05426954724482,tool,1.24698190545951,0,1,1
54,3,tool,0,0,animals,2,t_208.jpg,208,tbd,451.714748343132,457.680111554405,5.91142175294156,tool,1.26435674914228,0,1,1
55,3,tool,0,0,animals,2,t_352.jpg,352,tbd,460.246402458913,466.9617651089,6.66089115568989,tool,1.44691769436031,0,1,1
56,3,animal,0,0,animals,2,a_143.jpg,143,tbd,469.528077502637,477.576473492041,7.99329330158886,animal,1.01863350668009,0,2,1
57,3,animal,0,0,animals,2,a_083.jpg,83,tbd,480.142799677373,485.325054320891,5.13084048191607,animal,0.90725579370428,0,2,1
58,3,tool,0,0,animals,2,t_325.jpg,325,tbd,487.874643924722,495.023210192213,7.10345295993062,tool,1.34056332927139,0,1,1
59,3,tool,0,0,animals,2,t_297.jpg,297,tbd,497.572813587639,502.555130517849,4.92502390565981,tool,1.07686578985249,0,1,1
60,3,tool,0,0,animals,2,t_222.jpg,222,tbd,505.104787796716,509.520517784229,4.37449591386135,tool,0.879713657976936,0,1,1
