trial,phase,object,toShock,seenBefore,shockedCategory,responseSide,filename,num,name,onsetFixationCross,onsetStimulus,interTrialTime,response,reactionTime,wasShocked,buttonPressed,isResponseCorrect
1,3,tool,0,0,animals,2,t_226.jpg,226,tbd,0.0154347374468671,7.1973581504044,7.10125308105956,tool,1.34997087392412,0,1,1
2,3,tool,0,0,animals,2,t_328.jpg,328,tbd,9.76369890475416,17.7288552387472,7.91568807890282,tool,0.984962656622884,0,1,1
3,3,animal,0,0,animals,2,a_039.jpg,39,tbd,20.2951988797367,26.0773871579268,5.72318623918164,animal,0.967827563165883,0,2,1
4,3,animal,0,0,animals,2,a_072.jpg,72,tbd,28.6270521152746,33.0928075873817,4.4077495508049,animal,0.777792371820397,0,2,1
5,3,tool,0,0,animals,2,t_344.jpg,344,tbd,35.642494034159,41.3580435926315,5.66782021043212,tool,1.01796592943083,0,1,1
6,3,animal,0,0,animals,2,a_088.jpg,88,tbd,43.9243477828777,51.1396532599238,7.16228418181953,animal,0.646847658027582,0,2,1
7,3,animal,0,0,animals,2,a_115.jpg,115,tbd,53.7059580916452,58.5216054109833,4.75627021167636,animal,1.21714342954965,0,2,1
8,3,animal,0,0,animals,2,a_038.jpg,38,tbd,61.0713130264521,65.5036469837273,4.37326857123109,animal,0.822481083006551,0,2,1
9,3,tool,0,0,animals,2,t_248.jpg,248,tbd,68.0533940499395,72.369104233876,4.26222033357514,tool,1.20736990888827,0,1,1
10,3,animal,0,0,animals,2,a_054.jpg,54,tbd,74.9355174749567,79.234590350422,4.24419664447616,animal,1.02107355747239,0,2,1
11,3,animal,0,0,animals,2,a_046.jpg,46,tbd,81.7843396617977,88.6829733831382,6.84480517774801,animal,1.381270067076,0,2,1
12,3,animal,0,0,animals,2,a_148.jpg,148,tbd,91.2493051568308,95.8151105998786,4.49497811081149,animal,1.12845591407404,0,2,1
13,3,tool,0,0,animals,2,t_231.jpg,231,tbd,98.3811149003304,104.613504794269,6.17610793076528,tool,0.925477030164075,0,1,1
14,3,animal,0,0,animals,2,a_114.jpg,114,tbd,107.163158205058,112.345500822253,5.12187905410362,animal,1.31979041403747,0,2,1
15,3,tool,0,0,animals,2,t_257.jpg,257,tbd,114.911809502828,122.02712947722,7.04994399351344,tool,1.13367688313792,0,1,1
16,3,tool,0,0,animals,2,t_254.jpg,254,tbd,124.593445214025,131.225471134767,6.57257027949838,tool,1.00976338225973,0,1,1
17,3,animal,0,0,animals,2,a_085.jpg,85,tbd,133.791803229197,140.573854231631,6.72007552666374,animal,0.71380230442719,0,2,1
18,3,tool,0,0,animals,2,t_320.jpg,320,tbd,143.140151044909,149.672240535872,6.47552220056735,tool,1.15986800691326,0,1,1
19,3,tool,0,0,animals,2,t_187.jpg,187,tbd,152.22190132363,159.520399116313,7.25251125173736,tool,1.04613151478361,0,1,1
20,3,tool,0,0,animals,2,t_353.jpg,353,tbd,162.070124693095,169.352100322159,7.22618646867145,tool,0.793951460309472,0,1,1
21,3,animal,0,0,animals,2,a_070.jpg,70,tbd,171.918394569534,179.1503505053,7.18119784446747,animal,0.774124735670284,0,2,1
22,3,tool,0,0,animals,2,t_312.jpg,312,tbd,181.716667845793,187.548875496544,5.77838023547415,tool,0.833085955910974,0,1,1
23,3,animal,0,0,animals,2,a_058.jpg,58,tbd,190.115174234248,196.580612496722,6.41357740452319,animal,0.786736143927556,0,2,1
24,3,tool,0,0,animals,2,t_337.jpg,337,tbd,199.146930799429,206.545564520769,7.34638573710748,tool,0.915210535584265,0,1,1
25,3,tool,0,0,animals,2,t_262.jpg,262,tbd,209.111763829772,214.010833112975,4.83413590467918,tool,0.822281263389414,0,1,1
26,3,animal,0,0,animals,2,a_021.jpg,21,tbd,216.560521163441,222.142768264934,5.52375861976828,animal,1.10475371522398,0,2,1
27,3,tool,0,0,animals,2,t_350.jpg,350,tbd,224.692404676622,229.474753002949,4.72752587349544,tool,1.37407046684348,0,1,1
28,3,tool,0,0,animals,2,t_236.jpg,236,tbd,232.02445035481,238.739781490875,6.66382004254652,tool,0.924542079628282,0,1,1
29,3,tool,0,0,animals,2,t_266.jpg,266,tbd,241.289448051913,247.754898823158,6.40799691692091,tool,0.621730364233372,0,1,1
30,3,animal,0,0,animals,2,a_059.jpg,59,tbd,250.304484237545,258.236380708532,7.87258883073657,animal,0.88892607712387,0,2,1
31,3,tool,0,0,animals,2,t_299.jpg,299,tbd,260.786047911045,265.851781508837,5.00700722098878,tool,1.23679855949331,0,1,1
32,3,animal,0,0,animals,2,a_075.jpg,75,tbd,268.417987553332,272.750554751098,4.28133430012833,animal,0.904335922233258,0,2,1
33,3,tool,0,0,animals,2,t_186.jpg,186,tbd,275.300118355317,279.699118679904,4.35573254586154,tool,0.963101492447549,0,1,1
34,3,tool,0,0,animals,2,t_237.jpg,237,tbd,282.26555116525,289.597451869975,7.27847648287581,tool,0.564175258280557,0,1,1
35,3,animal,0,0,animals,2,a_057.jpg,57,tbd,292.147141524129,299.362457264784,7.15077621720459,animal,1.18869367055186,0,2,1
36,3,animal,0,0,animals,2,a_106.jpg,106,tbd,301.912100732703,308.910712579729,6.94507440165325,animal,0.710061540070456,0,2,1
37,3,tool,0,0,animals,2,t_287.jpg,287,tbd,311.460401913146,317.692580440908,6.17948066547472,tool,1.13543933706387,0,1,1
38,3,tool,0,0,animals,2,t_264.jpg,264,tbd,320.25885255738,326.857566014125,6.53726670283715,tool,1.11387421383006,0,1,1
39,3,tool,0,0,animals,2,t_251.jpg,251,tbd,329.423892976751,336.905654224703,7.43018222349021,tool,0.687174335839245,0,1,1
40,3,animal,0,0,animals,2,a_124.jpg,124,tbd,339.45538204665,343.788047069429,4.26440507788046,animal,0.907163225483146,0,2,1
41,3,animal,0,0,animals,2,a_164.jpg,164,tbd,346.337546205361,351.053320921733,4.6665477369687,animal,0.59416135109177,0,2,1
42,3,tool,0,0,animals,2,t_215.jpg,215,tbd,353.619572831726,359.60179241392,5.91709481854992,tool,0.756106330455623,0,1,1
43,3,animal,0,0,animals,2,a_019.jpg,19,tbd,362.151443579545,366.983797486708,4.78449817267375,animal,0.967449413361464,0,2,1
44,3,animal,0,0,animals,2,a_077.jpg,77,tbd,369.550144014338,375.598933357633,5.99259080611622,animal,1.41376368760257,0,2,1
45,3,animal,0,0,animals,2,a_004.jpg,4,tbd,378.148615955557,382.39780096094,4.1809346290245,animal,0.731272889568118,0,2,1
46,3,tool,0,0,animals,2,t_321.jpg,321,tbd,384.964043890276,392.446033182767,7.42396513909386,tool,0.636412776129418,0,1,1
47,3,animal,0,0,animals,2,a_165.jpg,165,tbd,395.012310431042,400.261342765256,5.18023496277514,animal,0.955558061348711,0,2,1
48,3,animal,0,0,animals,2,a_147.jpg,147,tbd,402.81087878603,407.693300176415,4.81111668102835,animal,0.92986279813249,0,2,1
49,3,animal,0,0,animals,2,a_102.jpg,102,tbd,410.259607253301,416.341775774046,6.0281160487637,animal,0.834857069756254,0,2,1
50,3,tool,0,0,animals,2,t_306.jpg,306,tbd,418.908069379946,426.223355227842,7.27089677016223,tool,1.24277326226547,0,1,1
51,3,animal,0,0,animals,2,a_016.jpg,16,tbd,428.77301312896,436.121564613142,7.26933054578317,animal,0.67600624744864,0,2,1
52,3,animal,0,0,animals,2,a_009.jpg,9,tbd,438.671248814755,443.120378845687,4.39171873766247,animal,0.774526299331228,0,2,1
53,3,tool,0,0,animals,2,t_327.jpg,327,tbd,445.669998579013,451.752153308034,6.01817325316528,tool,0.688079457764161,0,1,1
54,3,tool,0,0,animals,2,t_219.jpg,219,tbd,454.301818906858,460.633942524318,6.27419956670332,tool,0.653711125100017,0,1,1
55,3,tool,0,0,animals,2,t_205.jpg,205,tbd,463.200240941285,468.899110533165,5.63881984533802,tool,0.608090670755701,0,1,1
56,3,animal,0,0,animals,2,a_095.jpg,95,tbd,471.448796017729,478.580774469285,7.06565903771012,animal,0.720726070196179,0,2,1
57,3,animal,0,0,animals,2,a_090.jpg,90,tbd,481.130416012777,485.812825022686,4.62686146867154,animal,0.606957183553732,0,2,1
58,3,tool,0,0,animals,2,t_282.jpg,282,tbd,488.362475546835,495.944371440494,7.51848599708926,tool,0.910959798208296,0,1,1
59,3,animal,0,0,animals,2,a_048.jpg,48,tbd,498.494016832839,504.642833695434,6.08074761486631,animal,1.08503892805948,0,2,1
60,3,tool,0,0,animals,2,t_275.jpg,275,tbd,507.209109981497,512.191414879931,4.93516319144609,tool,0.59569928859446,0,1,1
