trial,phase,object,toShock,seenBefore,shockedCategory,responseSide,filename,num,name,onsetFixationCross,onsetStimulus,interTrialTime,response,reactionTime,wasShocked,buttonPressed,isResponseCorrect
1,1,tool,0,0,animals,2,t_230.jpg,230,tbd,0.0312594042052297,7.27955768210086,7.06799663707249,tool,2.40002816349715,0,1,1
2,1,animal,0,0,animals,2,a_143.jpg,143,tbd,9.87933650553532,15.6114793684055,5.66913507594752,animal,0.50420373714951,0,2,1
3,1,tool,0,0,animals,2,t_241.jpg,241,tbd,18.1777516740908,23.4432860724032,5.21540126386391,tool,1.00972144458547,0,1,1
4,1,animal,0,0,animals,2,a_163.jpg,163,tbd,26.0095599817469,30.991803955279,4.92373385628999,animal,0.503397738440981,0,2,1
5,1,animal,0,0,animals,2,a_137.jpg,137,tbd,33.5580457914548,37.657145786291,4.04022538371928,animal,0.893261206173065,0,2,1
6,1,animal,0,0,animals,2,a_068.jpg,68,tbd,40.2234026968558,48.0384511706384,7.75373988469816,animal,0.438167329613862,0,2,1
7,1,tool,0,0,animals,2,t_333.jpg,333,tbd,50.5880560131736,58.2364750786192,7.60033314462833,tool,0.432503528898906,0,1,1
8,1,tool,0,0,animals,2,t_299.jpg,299,tbd,60.786033094329,66.9180844203784,6.07357379513012,tool,0.566133817002537,0,1,1
9,1,animal,0,0,animals,2,a_057.jpg,57,tbd,69.4843570467956,77.3993730946049,7.85895804759263,animal,0.526135690075535,0,2,1
10,1,animal,0,0,animals,2,a_158.jpg,158,tbd,79.9489865968953,87.9307032875477,7.92402741173247,animal,0.666147576391268,0,2,1
11,1,tool,0,0,animals,2,t_274.jpg,274,tbd,90.4969034286055,98.2286540366326,7.66612376293445,tool,0.624387028889487,0,1,1
12,1,animal,0,0,animals,2,a_002.jpg,2,tbd,100.778226485268,105.960466545874,5.1250732439297,animal,0.490944048086021,0,2,1
13,1,animal,0,0,animals,2,a_096.jpg,96,tbd,108.510058879873,112.909086613862,4.3346166599205,animal,0.501376487401558,0,2,1
14,1,animal,0,0,animals,2,a_045.jpg,45,tbd,115.47536886223,122.057320456764,6.52049425267641,animal,0.506455914997787,0,2,1
15,1,tool,0,0,animals,2,t_348.jpg,348,tbd,124.60688552857,131.288864994687,6.62194247919631,tool,0.619172573256492,0,1,1
16,1,tool,0,0,animals,2,t_245.jpg,245,tbd,133.855087586962,139.887047857288,5.98379704118508,tool,0.706227169164777,0,1,1
17,1,tool,0,0,animals,2,t_264.jpg,264,tbd,142.436748919326,146.852471378658,4.35457461323688,tool,0.58727420414516,0,1,1
18,1,animal,0,0,animals,2,a_059.jpg,59,tbd,149.401991868762,155.167511994515,5.71791898214409,animal,0.402181876720078,0,2,1
19,1,animal,0,0,animals,2,a_021.jpg,21,tbd,157.7337326624,162.132719663466,4.34264039650398,animal,0.404178752151893,0,2,1
20,1,animal,0,0,animals,2,a_126.jpg,126,tbd,164.682424574285,168.814851797861,4.07634918094348,animal,0.480378505124463,0,2,1
21,1,tool,0,0,animals,2,t_272.jpg,272,tbd,171.364420718448,176.779943682676,5.35733238311173,tool,0.597303483739779,0,1,1
22,1,animal,0,0,animals,2,a_107.jpg,107,tbd,179.329534413017,186.461348076893,7.08122483770645,animal,0.529210223948212,0,2,1
23,1,animal,0,0,animals,2,a_042.jpg,42,tbd,189.010975691377,195.62626574026,6.56053931534952,animal,0.575512652752877,0,2,1
24,1,tool,0,0,animals,2,t_200.jpg,200,tbd,198.175836905968,203.108075282733,4.88236615309732,tool,0.618903158645935,0,1,1
25,1,animal,0,0,animals,2,a_149.jpg,149,tbd,205.67438222744,213.13952206164,7.40262061272697,animal,0.404743881369996,0,2,1
26,1,tool,0,0,animals,2,t_201.jpg,201,tbd,215.689094189544,222.937557964986,7.19903672303392,tool,0.602984603965524,0,1,1
27,1,tool,0,0,animals,2,t_211.jpg,211,tbd,225.503833477988,230.652649448887,5.08801909086511,tool,0.567116859597718,0,1,1
28,1,tool,0,0,animals,2,t_318.jpg,318,tbd,233.218945488716,240.650720889302,7.37232164204388,tool,0.532314906598458,0,1,1
29,1,animal,0,0,animals,2,a_080.jpg,80,tbd,243.200363578175,249.682273830395,6.40589844722059,animal,0.622106947385419,0,2,1
30,1,animal,0,0,animals,2,a_169.jpg,169,tbd,252.231936725364,260.046949597931,7.75753014363597,animal,0.52471837678695,0,2,1
31,1,animal,0,0,animals,2,a_034.jpg,34,tbd,262.596595173389,269.345168478699,6.68827023395868,animal,0.7516870358495,0,2,1
32,1,tool,0,0,animals,2,t_183.jpg,183,tbd,271.911412880728,278.243391978003,6.26840599322405,tool,0.575779501509714,0,1,1
33,1,tool,0,0,animals,2,t_237.jpg,237,tbd,280.792997462002,285.27536764345,4.41276157958777,animal,0.576941512381836,0,2,0
34,1,animal,0,0,animals,2,a_148.jpg,148,tbd,287.824994937202,293.573707440061,5.69770249133857,animal,0.549924679420656,0,2,1
35,1,animal,0,0,animals,2,a_075.jpg,75,tbd,296.140009573792,303.405157811163,7.20558902052407,animal,0.624724759347828,0,2,1
36,1,tool,0,0,animals,2,t_283.jpg,283,tbd,305.954770351259,311.55357992356,5.55056076835334,tool,0.589569360037785,0,1,1
37,1,tool,0,0,animals,2,t_298.jpg,298,tbd,314.103117733174,320.551816220058,6.39259240219118,tool,0.654471660357558,0,1,1
38,1,tool,0,0,animals,2,t_331.jpg,331,tbd,323.101373273573,327.816905763532,4.66479662422148,tool,0.588657519875596,0,1,1
39,1,animal,0,0,animals,2,a_011.jpg,11,tbd,330.366632484105,338.398352205671,7.97991885518679,animal,0.582518715543756,0,2,1
40,1,tool,0,0,animals,2,t_338.jpg,338,tbd,340.964563251606,345.280275479598,4.26191576813862,tool,0.721892987282445,0,1,1
41,1,tool,0,0,animals,2,t_308.jpg,308,tbd,347.829909829447,353.645409893434,5.7454947722917,tool,0.588807943032407,0,1,1
42,1,tool,0,0,animals,2,t_182.jpg,182,tbd,356.194938722561,361.760392841734,5.50298533478766,tool,0.550135079402025,0,1,1
43,1,animal,0,0,animals,2,a_047.jpg,47,tbd,364.326652959615,372.258388749839,7.87609145126141,animal,0.629439194293354,0,2,1
44,1,tool,0,0,animals,2,t_202.jpg,202,tbd,374.80793553994,378.923729618656,4.06084885767079,tool,0.6054632183791,0,1,1
45,1,tool,0,0,animals,2,t_195.jpg,195,tbd,381.473307519731,388.505168683967,6.96728994763565,tool,0.553081320603724,0,1,1
46,1,animal,0,0,animals,2,a_018.jpg,18,tbd,391.071433292092,395.937029719911,4.8065315777145,animal,0.696404440770948,0,2,1
47,1,tool,0,0,animals,2,t_256.jpg,256,tbd,398.486656051469,406.351668426901,7.80843345918115,tool,0.571031710469015,0,1,1
48,1,animal,0,0,animals,2,a_134.jpg,134,tbd,408.901273910899,415.966365763641,7.01121176502162,animal,0.498692283982109,0,2,1
49,1,tool,0,0,animals,2,t_278.jpg,278,tbd,418.532729477855,423.165060321562,4.57329118366845,tool,0.617993242873581,0,1,1
50,1,tool,0,0,animals,2,t_312.jpg,312,tbd,425.731297346763,430.230323445021,4.43752626240808,tool,0.547125012597007,0,1,1
51,1,tool,0,0,animals,2,t_271.jpg,271,tbd,432.779942399749,440.544996502373,7.69577972407604,tool,0.618736057441765,0,1,1
52,1,animal,0,0,animals,2,a_136.jpg,136,tbd,443.111262393425,448.643315194839,5.47664267500065,animal,0.503652078662526,0,2,1
53,1,animal,0,0,animals,2,a_027.jpg,27,tbd,451.209553823699,457.425051193538,6.15838155971535,animal,0.5861872444857,0,2,1
54,1,animal,0,0,animals,2,a_079.jpg,79,tbd,459.991254862645,465.156646567433,5.11087574252295,animal,0.499789827786572,0,2,1
55,1,tool,0,0,animals,2,t_196.jpg,196,tbd,467.723122858466,473.505075030317,5.73095497392159,tool,0.564522461048,0,1,1
56,1,animal,0,0,animals,2,a_141.jpg,141,tbd,476.054795656988,482.203523105943,6.08909405825479,animal,0.524384495109189,0,2,1
57,1,animal,0,0,animals,2,a_102.jpg,102,tbd,484.753096196042,491.684984013081,6.87329858936801,animal,0.436123627357119,0,2,1
58,1,tool,0,0,animals,2,t_220.jpg,220,tbd,494.251223924867,499.583468908704,5.27884496244269,tool,0.737935985854165,0,1,1
59,1,tool,0,0,animals,2,t_188.jpg,188,tbd,502.133027565877,508.381724833981,6.18346093215512,tool,0.504807033437828,0,1,1
60,1,animal,0,0,animals,2,a_040.jpg,40,tbd,510.9312940753,515.080375291296,4.09009413268531,animal,0.584456576346838,0,2,1
