trial,phase,object,toShock,seenBefore,shockedCategory,responseSide,filename,num,name,onsetFixationCross,onsetStimulus,interTrialTime,response,reactionTime,wasShocked,buttonPressed,isResponseCorrect
1,3,animal,0,0,animals,2,a_044.jpg,44,tbd,0.0154694305292651,5.964004825355,5.87461531388183,animal,1.45427675204155,0,2,1
2,3,tool,0,0,animals,2,t_273.jpg,273,tbd,8.54711939295612,14.8957829521596,6.29123443519237,tool,0.817732777002675,0,1,1
3,3,animal,0,0,animals,2,a_085.jpg,85,tbd,17.4620485224805,22.3609878948919,4.84255094756746,animal,0.846657642719947,0,2,1
4,3,animal,0,0,animals,2,a_131.jpg,131,tbd,24.9105500801134,30.6426971124956,5.66983223481948,animal,0.870259966229241,0,2,1
5,3,animal,0,0,animals,2,a_031.jpg,31,tbd,33.2089216291615,39.4908226443085,6.23509382519717,animal,0.498260932273297,0,2,1
6,3,tool,0,0,animals,2,t_286.jpg,286,tbd,42.040558024637,46.7060897288038,4.6133071263338,tool,0.783318909334412,0,1,1
7,3,animal,0,0,animals,2,a_007.jpg,7,tbd,49.2724630649682,55.3378413310984,6.01532422047316,animal,0.618704658136267,0,2,1
8,3,animal,0,0,animals,2,a_016.jpg,16,tbd,57.9041216550759,63.9028416149467,5.94657755328042,animal,0.418031185756263,0,2,1
9,3,tool,0,0,animals,2,t_233.jpg,233,tbd,66.4691071852667,71.3013590648343,4.77533295422782,tool,0.775656950260782,0,1,1
10,3,animal,0,0,animals,2,a_138.jpg,138,tbd,73.8510206768769,78.6166431160345,4.6976674341613,animal,0.595636032140646,0,2,1
11,3,tool,0,0,animals,2,t_316.jpg,316,tbd,81.1829061205017,88.264761655897,7.03102511630581,tool,0.603796728974885,0,1,1
12,3,tool,0,0,animals,2,t_304.jpg,304,tbd,90.814261939905,96.8462687163237,5.98697809332295,tool,0.575478046130229,0,1,1
13,3,animal,0,0,animals,2,a_043.jpg,43,tbd,99.3959893429956,104.661518609601,5.20583893981452,animal,0.462511537893988,0,2,1
14,3,tool,0,0,animals,2,t_358.jpg,358,tbd,107.227804065285,115.042833615898,7.75571928497738,tool,0.522484192310912,0,1,1
15,3,animal,0,0,animals,2,a_110.jpg,110,tbd,117.592425949898,122.441377686516,4.79597768901044,animal,0.918088757092846,0,2,1
16,3,tool,0,0,animals,2,t_330.jpg,330,tbd,125.007607976351,129.606639174242,4.53739727070587,tool,0.726084020527196,0,1,1
17,3,animal,0,0,animals,2,a_154.jpg,154,tbd,132.156263260678,137.171888666604,4.95311418362928,animal,0.52905245636066,0,2,1
18,3,tool,0,0,animals,2,t_291.jpg,291,tbd,139.738102599124,144.270464585878,4.48234110621101,tool,0.532711042620576,0,1,1
19,3,animal,0,0,animals,2,a_023.jpg,23,tbd,146.836726628149,153.335342831321,6.44954958631026,animal,0.563031732604031,0,2,1
20,3,animal,0,0,animals,2,a_103.jpg,103,tbd,155.901612571153,163.266745060599,7.30005893224783,animal,0.335936705259883,0,2,1
21,3,animal,0,0,animals,2,a_099.jpg,99,tbd,165.833012555309,170.615306627129,4.73458288495288,animal,0.678504758909185,0,2,1
22,3,tool,0,0,animals,2,t_215.jpg,215,tbd,173.164846361134,180.679937588448,7.45877143694277,tool,0.362157161462164,0,1,1
23,3,animal,0,0,animals,2,a_032.jpg,32,tbd,183.229598559028,187.611943755477,4.32468928374036,animal,0.651351614985288,0,2,1
24,3,tool,0,0,animals,2,t_226.jpg,226,tbd,190.178252945306,194.843855531173,4.59919492239579,tool,0.596743518626681,0,1,1
25,3,tool,0,0,animals,2,t_344.jpg,344,tbd,197.393502068827,202.592369180391,5.14193059640324,tool,0.538421028697485,0,1,1
26,3,tool,0,0,animals,2,t_352.jpg,352,tbd,205.141968570488,212.923690456993,7.71500063936693,tool,0.458377627286609,0,1,1
27,3,animal,0,0,animals,2,a_097.jpg,97,tbd,215.473265792213,220.038930311368,4.5030582229841,animal,0.4993507785166,0,2,1
28,3,tool,0,0,animals,2,t_356.jpg,356,tbd,222.605246236561,226.80428429811,4.13456864888358,tool,0.540137584642252,0,1,1
29,3,animal,0,0,animals,2,a_159.jpg,159,tbd,229.353899404059,235.769209723184,6.36214817125592,animal,0.568502452849316,0,2,1
30,3,animal,0,0,animals,2,a_051.jpg,51,tbd,238.335491330088,245.067338799083,6.67729424499583,animal,0.46268729885378,0,2,1
31,3,animal,0,0,animals,2,a_147.jpg,147,tbd,247.633694815736,255.582048997163,7.87744405883418,animal,0.649124133476107,0,2,1
32,3,tool,0,0,animals,2,t_238.jpg,238,tbd,258.148267099195,264.446823710421,6.25443348893079,tool,0.435628129312136,0,1,1
33,3,tool,0,0,animals,2,t_354.jpg,354,tbd,266.996485643195,271.762135665277,4.70165440689218,tool,0.824526515422804,0,1,1
34,3,tool,0,0,animals,2,t_224.jpg,224,tbd,274.311738262691,281.326818104031,6.96222648021955,tool,0.572113891551453,0,1,1
35,3,animal,0,0,animals,2,a_078.jpg,78,tbd,283.876575294114,291.874903961336,7.94595050824173,animal,0.510327499490813,0,2,1
36,3,animal,0,0,animals,2,a_038.jpg,38,tbd,294.424495653872,298.540129366749,4.06717929588504,animal,0.582420283316424,0,2,1
37,3,tool,0,0,animals,2,t_253.jpg,253,tbd,301.106496288279,306.771995277814,5.60608581137246,tool,0.528717612488435,0,1,1
38,3,tool,0,0,animals,2,t_328.jpg,328,tbd,309.321608138642,317.036686151811,7.65151808240221,tool,0.413319637395034,0,1,1
39,3,animal,0,0,animals,2,a_100.jpg,100,tbd,319.586240318741,325.951583849632,6.30163609503438,animal,0.366597691554489,0,2,1
40,3,tool,0,0,animals,2,t_307.jpg,307,tbd,328.517834345563,335.033161952125,6.45416266744653,tool,0.532348936555536,0,1,1
41,3,animal,0,0,animals,2,a_017.jpg,17,tbd,337.582715477592,345.414485618178,7.76974276490839,animal,0.394240913483372,0,2,1
42,3,tool,0,0,animals,2,t_268.jpg,268,tbd,347.964020541207,353.062796597048,5.05018844253587,tool,0.558122292796725,0,1,1
43,3,tool,0,0,animals,2,t_346.jpg,346,tbd,355.612480018845,362.094508300323,6.41874386478975,tool,0.641842562173224,0,1,1
44,3,animal,0,0,animals,2,a_024.jpg,24,tbd,364.644107048955,368.843159222699,4.13484200673027,animal,0.514305855233943,0,2,1
45,3,tool,0,0,animals,2,t_243.jpg,243,tbd,371.409441791798,378.207877968279,6.74659859304824,tool,0.454777414191994,0,1,1
46,3,tool,0,0,animals,2,t_250.jpg,250,tbd,380.757612707143,386.423081868632,5.61162385184827,tool,0.477874906038778,0,1,1
47,3,animal,0,0,animals,2,a_022.jpg,22,tbd,388.98932594993,393.338346162761,4.29522285022603,animal,0.54080983824133,0,2,1
48,3,animal,0,0,animals,2,a_065.jpg,65,tbd,395.887988210171,402.703202822963,6.75567686196387,animal,0.452159922961982,0,2,1
49,3,tool,0,0,animals,2,t_205.jpg,205,tbd,405.269438244505,409.751819972294,4.42209195827001,tool,0.559793625574457,0,1,1
50,3,animal,0,0,animals,2,a_153.jpg,153,tbd,412.30143283312,418.316823142726,5.96028183436396,animal,0.448031785524108,0,2,1
51,3,animal,0,0,animals,2,a_108.jpg,108,tbd,420.883084864266,425.465387659988,4.52776896524424,animal,0.378674201455397,0,2,1
52,3,tool,0,0,animals,2,t_287.jpg,287,tbd,428.031696529085,432.114116552235,4.01807257716571,tool,0.563068616746932,0,1,1
53,3,animal,0,0,animals,2,a_119.jpg,119,tbd,434.663739035012,442.478777566113,7.75679689761063,animal,0.362834226036284,0,2,1
54,3,tool,0,0,animals,2,t_221.jpg,221,tbd,445.028367013528,449.86061600651,4.77111818762367,tool,0.566122944524068,0,1,1
55,3,tool,0,0,animals,2,t_269.jpg,269,tbd,452.426885746342,457.792449299164,5.31067276907674,tool,0.653594812346455,0,1,1
56,3,tool,0,0,animals,2,t_218.jpg,218,tbd,460.358679909731,465.407702784635,4.99618877814418,tool,0.730488628671992,0,1,1
57,3,animal,0,0,animals,2,a_116.jpg,116,tbd,467.973878229354,475.089008714226,7.05377830881445,animal,0.304443420259304,0,2,1
58,3,tool,0,0,animals,2,t_319.jpg,319,tbd,477.63860746286,481.854411452185,4.15070857584887,tool,0.437223769413322,0,1,1
59,3,tool,0,0,animals,2,t_184.jpg,184,tbd,484.403913339851,490.15272719392,5.69337893202677,tool,0.579086277515671,0,1,1
60,3,animal,0,0,animals,2,a_112.jpg,112,tbd,492.719020988628,499.6675862115,6.88993939517288,animal,0.436460748749596,0,2,1
