trial,phase,object,toShock,seenBefore,shockedCategory,responseSide,filename,num,name,onsetFixationCross,onsetStimulus,interTrialTime,response,reactionTime,wasShocked,buttonPressed,isResponseCorrect
1,1,animal,0,0,tools,2,a_040.jpg,40,tbd,0.0346994445903874,5.15009987476242,4.94580238899657,animal,1.12951262396246,0,2,1
2,1,tool,0,0,tools,2,t_296.jpg,296,tbd,7.7332264932802,12.232398030334,4.44302419776792,tool,0.723500670746489,0,1,1
3,1,tool,0,0,tools,2,t_278.jpg,278,tbd,14.7820099068299,20.7307895356862,5.88350950814708,tool,0.83149849743404,0,1,1
4,1,tool,0,0,tools,2,t_321.jpg,321,tbd,23.2804662009994,30.3957944654094,7.06697943879704,tool,0.671843776927744,0,1,1
5,1,animal,0,0,tools,2,a_047.jpg,47,tbd,32.9454198128478,37.0279229191829,4.01968564554385,animal,0.778004744423015,0,2,1
6,1,animal,0,0,tools,2,a_126.jpg,126,tbd,39.5775643034567,44.0266752533444,4.39279152361537,animal,0.470500659841036,0,2,1
7,1,animal,0,0,tools,2,a_169.jpg,169,tbd,46.5762021346095,52.7750896913717,6.15147879907234,animal,0.630524548312223,0,2,1
8,1,tool,0,0,tools,2,t_323.jpg,323,tbd,55.34141579979,61.8733441779973,6.48011209058744,tool,0.902684729361681,0,1,1
9,1,tool,0,0,tools,2,t_337.jpg,337,tbd,64.4397912041586,71.2384070327721,6.73847084036462,tool,0.547849206358933,0,1,1
10,1,animal,0,0,tools,2,a_038.jpg,38,tbd,73.7880801699816,80.8199405520045,6.99207128200944,animal,1.00701108282237,0,2,1
11,1,tool,0,0,tools,2,t_283.jpg,283,tbd,83.3696897038162,91.2847194906353,7.86749499142038,tool,0.712644695004201,0,1,1
12,1,tool,0,0,tools,2,t_229.jpg,229,tbd,93.8344503604544,101.799616107569,7.91104826270923,tool,0.625175301305262,0,1,1
13,1,tool,0,0,tools,2,t_259.jpg,259,tbd,104.349238889113,110.71467796806,6.29629979153054,tool,0.674475421710213,0,1,1
14,1,animal,0,0,tools,2,a_022.jpg,22,tbd,113.264277335823,118.663214478483,5.33457049617192,animal,0.716360109161997,0,2,1
15,1,animal,0,0,tools,2,a_057.jpg,57,tbd,121.229547001635,126.095247801745,4.79874575686012,animal,0.984731106608251,0,2,1
16,1,tool,0,0,tools,2,t_212.jpg,212,tbd,128.661541195017,135.810079501566,7.10165781346766,tool,0.61317525768527,0,1,1
17,1,tool,0,0,tools,2,t_339.jpg,339,tbd,138.359786636868,146.258290784956,7.8397201920682,tool,0.751502269298271,0,1,1
18,1,animal,0,0,tools,2,a_154.jpg,154,tbd,148.82457423539,153.490307558203,4.60895563344433,animal,0.553793740716173,0,2,1
19,1,tool,0,0,tools,2,t_217.jpg,217,tbd,156.039936113008,161.138931501456,5.03689704914062,tool,0.793435067257633,0,1,1
20,1,animal,0,0,tools,2,a_035.jpg,35,tbd,163.688530548483,170.403934763348,6.65635350079238,animal,0.845913047078284,0,2,1
21,1,animal,0,0,tools,2,a_109.jpg,109,tbd,172.97018132906,180.835347781795,7.8152523086389,animal,0.63487919075169,0,2,1
22,1,tool,0,0,tools,2,t_236.jpg,236,tbd,183.401683512315,190.466862024751,7.01276493947213,tool,0.791781027995512,0,1,1
23,1,tool,0,0,tools,2,t_310.jpg,310,tbd,193.016619515717,197.848980375317,4.7737951705161,tool,0.641064277648638,0,1,1
24,1,animal,0,0,tools,2,a_042.jpg,42,tbd,200.398622401065,204.997702784743,4.54634919094567,animal,0.961636138390077,0,2,1
25,1,animal,0,0,tools,2,a_080.jpg,80,tbd,207.547272965465,215.195864835046,7.58497023310535,animal,0.629864792880198,0,2,1
26,1,tool,0,0,tools,2,t_340.jpg,340,tbd,217.762155020951,224.944133658603,7.1268831069734,tool,0.594100403508492,0,1,1
27,1,tool,0,0,tools,2,t_348.jpg,348,tbd,227.510406524725,232.109479852196,4.54987681671149,tool,0.617231935712425,0,1,1
28,1,animal,0,0,tools,2,a_166.jpg,166,tbd,234.675782226097,241.391106898255,6.65886554284324,animal,0.799749090316254,0,2,1
29,1,tool,0,0,tools,2,t_273.jpg,273,tbd,243.957447760562,248.973079826793,4.94978618274789,tool,0.810212805050014,0,1,1
30,1,animal,0,0,tools,2,a_117.jpg,117,tbd,251.522757775053,259.254522128503,7.67617921646371,animal,0.610214857765186,0,2,1
31,1,animal,0,0,tools,2,a_110.jpg,110,tbd,261.804241772536,267.81971122525,5.96251723105132,animal,0.637397615472764,0,2,1
32,1,animal,0,0,tools,2,a_157.jpg,157,tbd,270.369359024259,276.968028223463,6.54414775585391,animal,0.576482335510718,0,2,1
33,1,tool,0,0,tools,2,t_192.jpg,192,tbd,279.517719963401,285.299785777293,5.73069432782568,tool,0.563092218948896,0,1,1
34,1,animal,0,0,tools,2,a_006.jpg,6,tbd,287.866212597041,294.698216155936,6.77114080208076,animal,0.627006387236634,0,2,1
35,1,animal,0,0,tools,2,a_151.jpg,151,tbd,297.247848238845,302.696789839745,5.38299317109344,animal,0.640850987730119,0,2,1
36,1,tool,0,0,tools,2,t_223.jpg,223,tbd,305.246435393596,310.428584663182,5.13296880111872,tool,0.615393152099841,0,1,1
37,1,animal,0,0,tools,2,a_002.jpg,2,tbd,312.994977805575,317.210836183634,4.15786480603012,animal,0.761381280992737,0,2,1
38,1,animal,0,0,tools,2,a_026.jpg,26,tbd,319.760477247172,325.626000038403,5.81315131912827,animal,0.96765925324371,0,2,1
39,1,animal,0,0,tools,2,a_163.jpg,163,tbd,328.192297921989,333.757843036496,5.50074247562175,animal,0.625270880847893,0,2,1
40,1,tool,0,0,tools,2,t_252.jpg,252,tbd,336.307500457605,340.973215819162,4.60203329450184,tool,0.916047583302316,0,1,1
41,1,animal,0,0,tools,2,a_102.jpg,102,tbd,343.522872278062,349.454895017012,5.88046924252403,animal,0.938809947542723,0,2,1
42,1,tool,0,0,tools,2,t_265.jpg,265,tbd,352.004688751229,356.737019204988,4.67589446459282,tool,0.599916963914893,0,1,1
43,1,animal,0,0,tools,2,a_143.jpg,143,tbd,359.286717038924,367.118491912538,7.76886827372651,animal,0.678878174657712,0,2,1
44,1,tool,0,0,tools,2,t_335.jpg,335,tbd,369.668188142791,375.050392450798,5.31085959803342,tool,0.538579273694268,0,1,1
45,1,tool,0,0,tools,2,t_237.jpg,237,tbd,377.600067191691,383.048949135561,5.39598998446929,tool,0.596130987679317,0,1,1
46,1,animal,0,0,tools,2,a_123.jpg,123,tbd,385.598616499509,392.180702968846,6.5235064374407,animal,0.700804378270277,0,2,1
47,1,tool,0,0,tools,2,t_325.jpg,325,tbd,394.746971665391,401.279121351935,6.46926287417084,tool,0.936862113445386,0,1,1
48,1,tool,0,0,tools,2,t_344.jpg,344,tbd,403.845337447658,408.027828943324,4.13489436400344,tool,0.70744138320515,0,1,1
49,1,animal,0,0,tools,2,a_104.jpg,104,tbd,410.577452045605,415.409837281196,4.77272416807064,animal,0.930650726137173,0,2,1
50,1,animal,0,0,tools,2,a_079.jpg,79,tbd,417.976129391521,422.67519431569,4.62828458857291,animal,0.691722397323247,0,2,1
51,1,tool,0,0,tools,2,t_250.jpg,250,tbd,425.224855906377,431.456844454793,6.18625737783823,tool,0.797482123183272,0,1,1
52,1,tool,0,0,tools,2,t_327.jpg,327,tbd,434.006582701556,440.321982041224,6.25631060170647,tool,0.87772884669721,0,1,1
53,1,tool,0,0,tools,2,t_290.jpg,290,tbd,442.888319375427,447.5206688168,4.56948925721258,tool,0.620194901526702,0,1,1
54,1,animal,0,0,tools,2,a_019.jpg,19,tbd,450.086961889336,457.202278927961,7.06375341071274,animal,1.08618173464265,0,2,1
55,1,animal,0,0,tools,2,a_000.jpg,0,tbd,459.768613054797,465.217498847507,5.39866274633327,animal,0.776307405704301,0,2,1
56,1,animal,0,0,tools,2,a_174.jpg,174,tbd,467.767164607772,475.182369196103,7.35328695553164,animal,0.775775624223115,0,2,1
57,1,tool,0,0,tools,2,t_210.jpg,210,tbd,477.748706530306,485.680481019036,7.87437942885868,tool,1.17221037899799,0,1,1
58,1,animal,0,0,tools,2,a_108.jpg,108,tbd,488.230155118455,493.812339733228,5.51788441458954,animal,0.70762420313531,0,2,1
59,1,tool,0,0,tools,2,t_186.jpg,186,tbd,496.362015436331,502.227552981451,5.80901371179959,tool,1.07188104653414,0,1,1
60,1,tool,0,0,tools,2,t_349.jpg,349,tbd,504.777176404468,512.508901948775,7.68231223559572,tool,0.609936137555906,0,1,1
