trial,phase,object,toShock,seenBefore,shockedCategory,responseSide,filename,num,name,onsetFixationCross,onsetStimulus,interTrialTime,response,reactionTime,wasShocked,buttonPressed,isResponseCorrect
1,3,tool,0,0,animals,2,t_232.jpg,232,tbd,0.0154195347167843,6.56403362820674,6.45736430445234,tool,0.893077054759488,0,1,1
2,3,animal,0,0,animals,2,a_088.jpg,88,tbd,9.13033714944686,14.6791427209755,5.48682234862122,animal,1.05231109128181,0,2,1
3,3,animal,0,0,animals,2,a_087.jpg,87,tbd,17.2454199420499,23.727501670779,6.42352712080054,animal,0.864156173036463,0,2,1
4,3,tool,0,0,animals,2,t_325.jpg,325,tbd,26.2770927192287,31.7759250880627,5.44816316588417,tool,1.19618390624055,0,1,1
5,3,tool,0,0,animals,2,t_283.jpg,283,tbd,34.3255709819805,39.9577827201301,5.5901722621312,tool,0.876554777074489,0,1,1
6,3,tool,0,0,animals,2,t_323.jpg,323,tbd,42.5073227719149,47.9395589499745,5.37934813285394,tool,0.911974686494432,0,1,1
7,3,animal,0,0,animals,2,a_120.jpg,120,tbd,50.4891849584019,55.1881551785955,4.65403753439929,animal,0.927633228226114,0,2,1
8,3,tool,0,0,animals,2,t_281.jpg,281,tbd,57.7378280141475,64.0698246361808,6.27330320241957,tool,0.869343720485631,0,1,1
9,3,animal,0,0,animals,2,a_059.jpg,59,tbd,66.636136496496,73.9345834075266,7.25949856585039,animal,0.852845497831368,0,2,1
10,3,tool,0,0,animals,2,t_354.jpg,354,tbd,76.5009190021392,84.5492943093614,7.97915601897757,tool,0.753517467082929,0,1,1
11,3,animal,0,0,animals,2,a_046.jpg,46,tbd,87.1155708889673,95.0973179320426,7.9369759880787,animal,0.869834122368047,0,2,1
12,3,animal,0,0,animals,2,a_083.jpg,83,tbd,97.6635771920264,102.779222872337,5.05131042930646,animal,1.07927613868014,0,2,1
13,3,animal,0,0,animals,2,a_008.jpg,8,tbd,105.328778960809,110.077797435393,4.69031516672242,animal,0.919885584096846,0,2,1
14,3,tool,0,0,animals,2,t_227.jpg,227,tbd,112.644086523615,119.726045539617,7.02199173399971,tool,0.889032923079867,0,1,1
15,3,tool,0,0,animals,2,t_264.jpg,264,tbd,122.27557596939,128.091077736473,5.77434196374076,tool,0.863223800064588,0,1,1
16,3,animal,0,0,animals,2,a_162.jpg,162,tbd,130.640671350793,135.822897505923,5.13102281772269,animal,0.728762916591222,0,2,1
17,3,animal,0,0,animals,2,a_175.jpg,175,tbd,138.389238553009,144.904508846555,6.45312388925982,animal,0.823438704497676,0,2,1
18,3,animal,0,0,animals,2,a_082.jpg,82,tbd,147.470826480079,152.236345422452,4.71609039851873,animal,0.764783560298383,0,2,1
19,3,tool,0,0,animals,2,t_242.jpg,242,tbd,154.786100686575,158.985034824223,4.1590842378981,tool,0.724399334110785,0,1,1
20,3,animal,0,0,animals,2,a_033.jpg,33,tbd,161.551452847407,169.033138790704,7.43229112168317,animal,0.788642622197585,0,2,1
21,3,tool,0,0,animals,2,t_202.jpg,202,tbd,171.582912657384,177.548281752957,5.91022161846414,tool,1.00472831711886,0,1,1
22,3,animal,0,0,animals,2,a_123.jpg,123,tbd,180.097994680227,185.546895221016,5.39580963631583,animal,0.848460105456979,0,2,1
23,3,animal,0,0,animals,2,a_054.jpg,54,tbd,188.096452592423,193.128775176152,4.96838959126077,animal,0.79783613401014,0,2,1
24,3,tool,0,0,animals,2,t_267.jpg,267,tbd,195.678390921099,200.777193589989,5.06076268329703,tool,0.843588480738617,0,1,1
25,3,tool,0,0,animals,2,t_321.jpg,321,tbd,203.326883103695,209.792271603659,6.4049758251763,tool,0.76393521956561,0,1,1
26,3,tool,0,0,animals,2,t_217.jpg,217,tbd,212.358533429513,216.77426721538,4.35777900369244,tool,0.863106732251254,0,1,1
27,3,animal,0,0,animals,2,a_128.jpg,128,tbd,219.32388071519,224.172838539025,4.79553382406662,animal,0.70584617041095,0,2,1
28,3,animal,0,0,animals,2,a_136.jpg,136,tbd,226.722503676969,234.554257663929,7.77396547736682,animal,0.767791722009861,0,2,1
29,3,tool,0,0,animals,2,t_213.jpg,213,tbd,237.120524300788,244.618931055955,7.45383123999935,tool,0.64842713402868,0,1,1
30,3,animal,0,0,animals,2,a_160.jpg,160,tbd,247.16861190985,253.800604266124,6.56885383200951,animal,0.805118072756159,0,2,1
31,3,animal,0,0,animals,2,a_125.jpg,125,tbd,256.350228991616,261.049240586461,4.63254012022746,animal,0.779722054794547,0,2,1
32,3,animal,0,0,animals,2,a_104.jpg,104,tbd,263.6155174868,267.981252411273,4.31458310030128,animal,0.844971163875016,0,2,1
33,3,tool,0,0,animals,2,t_254.jpg,254,tbd,270.53085693054,275.813115768438,5.23275714020732,tool,0.672275611714213,0,1,1
34,3,tool,0,0,animals,2,t_229.jpg,229,tbd,278.362710665691,285.144639628943,6.72705459003959,tool,0.737320092672235,0,1,1
35,3,animal,0,0,animals,2,a_067.jpg,67,tbd,287.710949244123,295.725949960963,7.97203714759309,animal,0.719217559870231,0,2,1
36,3,animal,0,0,animals,2,a_112.jpg,112,tbd,298.292265028616,305.424256583057,7.07180325860193,animal,0.692290359051185,0,2,1
37,3,animal,0,0,animals,2,a_050.jpg,50,tbd,307.973780918888,313.389151313433,5.36074152515155,animal,0.826647324794976,0,2,1
38,3,tool,0,0,animals,2,t_292.jpg,292,tbd,315.938933198457,320.488012035128,4.47533195919329,tool,0.901014252529421,0,1,1
39,3,tool,0,0,animals,2,t_347.jpg,347,tbd,323.054248202285,329.019687538545,5.9136863822064,tool,0.681555400902653,0,1,1
40,3,animal,0,0,animals,2,a_129.jpg,129,tbd,331.569302962758,337.418150133453,5.78659491730238,animal,0.783337686201776,0,2,1
41,3,tool,0,0,animals,2,t_185.jpg,185,tbd,339.984399450692,347.349450250105,7.32682058634998,tool,0.814429614583787,0,1,1
42,3,tool,0,0,animals,2,t_296.jpg,296,tbd,349.915844859725,355.598011518749,5.62937518547223,tool,0.675242719506059,0,1,1
43,3,tool,0,0,animals,2,t_237.jpg,237,tbd,358.147605453802,365.946146137214,7.76017094788873,tool,0.634367492204547,0,1,1
44,3,animal,0,0,animals,2,a_035.jpg,35,tbd,368.512280032541,372.677929064519,4.10998588287106,animal,0.843924609693204,0,2,1
45,3,animal,0,0,animals,2,a_161.jpg,161,tbd,375.227727306961,381.476405964153,6.19383913934935,animal,0.82769548264514,0,2,1
46,3,animal,0,0,animals,2,a_169.jpg,169,tbd,384.042714937865,389.441567865731,5.34448056117533,animal,0.777845441703903,0,2,1
47,3,tool,0,0,animals,2,t_334.jpg,334,tbd,392.007869783303,398.773142722901,6.72453656669737,tool,0.63558880403798,0,1,1
48,3,animal,0,0,animals,2,a_152.jpg,152,tbd,401.339438867264,406.138298081512,4.75237126844265,animal,0.649611924449346,0,2,1
49,3,tool,0,0,animals,2,t_290.jpg,290,tbd,408.704742404861,415.986557668002,7.21824298823609,tool,0.758694430316609,0,1,1
50,3,tool,0,0,animals,2,t_302.jpg,302,tbd,418.536194260643,425.984680413445,7.40669850948044,tool,0.754986748326701,0,1,1
51,3,animal,0,0,animals,2,a_019.jpg,19,tbd,428.53429519619,433.400026752959,4.80338865727776,animal,0.941931858917087,0,2,1
52,3,tool,0,0,animals,2,t_352.jpg,352,tbd,435.949578671893,443.664654857381,7.66155470258612,tool,0.762621814916201,0,1,1
53,3,animal,0,0,animals,2,a_143.jpg,143,tbd,446.230971849436,452.796275322888,6.52161861409725,animal,0.682188529297491,0,2,1
54,3,tool,0,0,animals,2,t_331.jpg,331,tbd,455.345882087289,460.311579614208,4.90602253377979,tool,0.631247993653233,0,1,1
55,3,tool,0,0,animals,2,t_191.jpg,191,tbd,462.861128646538,469.509593246034,6.59273112975783,tool,0.64756885055067,0,1,1
56,3,animal,0,0,animals,2,a_168.jpg,168,tbd,472.059427089922,478.691327716346,6.57873977154054,animal,0.773156635215855,0,2,1
57,3,tool,0,0,animals,2,t_349.jpg,349,tbd,481.240986760349,487.556338905142,6.26152634835736,tool,0.632454593969669,0,1,1
58,3,animal,0,0,animals,2,a_126.jpg,126,tbd,490.105959140363,494.505046845323,4.3493524753971,animal,0.736918854769101,0,2,1
59,3,tool,0,0,animals,2,t_322.jpg,322,tbd,497.071300973568,503.420123287398,6.28052176695383,tool,0.565135469354573,0,1,1
60,3,tool,0,0,animals,2,t_256.jpg,256,tbd,505.986310703025,512.468313210522,6.42669190686734,tool,0.676335459345864,0,1,1
