trial,phase,object,toShock,seenBefore,shockedCategory,responseSide,filename,num,name,onsetFixationCross,onsetStimulus,interTrialTime,response,reactionTime,wasShocked,buttonPressed,isResponseCorrect
1,3,tool,0,0,tools,2,t_199.jpg,199,tbd,0.0154181630346102,4.31446709433703,4.22220092843028,tool,1.2625903819262,0,1,1
2,3,animal,0,0,tools,2,a_141.jpg,141,tbd,6.88067161724575,14.1292154105704,7.19344912739276,animal,0.682159118313393,0,2,1
3,3,animal,0,0,tools,2,a_132.jpg,132,tbd,16.6788900112024,23.1941875180505,6.45048826433006,animal,1.38455861591729,0,2,1
4,3,animal,0,0,tools,2,a_024.jpg,24,tbd,25.7604847327116,31.292645082387,5.48376484043163,animal,1.37931591908136,0,2,1
5,3,tool,0,0,tools,2,t_234.jpg,234,tbd,33.858926901878,40.3074411236476,6.40210904073837,tool,1.31592694824531,0,1,1
6,3,tool,0,0,tools,2,t_246.jpg,246,tbd,42.8738650277278,48.9225432722037,5.99602127956527,tool,0.836961721764965,0,1,1
7,3,animal,0,0,tools,2,a_103.jpg,103,tbd,51.4888667869468,56.2545147744613,4.72106289372047,animal,1.13331329099765,0,2,1
8,3,tool,0,0,tools,2,t_290.jpg,290,tbd,58.8207250705586,65.2694176197133,6.39306573004252,,2.50524263614807,0,,0
9,3,animal,0,0,tools,2,a_017.jpg,17,tbd,67.7856830978726,74.7009166506195,6.86824836851782,animal,0.910429717932402,0,2,1
10,3,animal,0,0,tools,2,a_058.jpg,58,tbd,77.2672533154032,83.6658682632797,6.34666082297829,animal,0.812669426501543,0,2,1
11,3,tool,0,0,tools,2,t_186.jpg,186,tbd,86.2321972304785,93.3306968107995,7.05493568940114,tool,0.96524742789461,0,1,1
12,3,animal,0,0,tools,2,a_009.jpg,9,tbd,95.8969346899098,100.412679939618,4.46213073393819,animal,0.696394518800844,0,2,1
13,3,tool,0,0,tools,2,t_260.jpg,260,tbd,102.962275319271,110.01080827183,6.98876504783812,tool,0.934571589555162,0,1,1
14,3,tool,0,0,tools,2,t_320.jpg,320,tbd,112.577105165758,119.608971884641,6.99009595218638,tool,1.08579545745715,0,1,1
15,3,animal,0,0,tools,2,a_163.jpg,163,tbd,122.175258194389,126.607622241408,4.37760730038458,animal,1.33229265537557,0,2,1
16,3,tool,0,0,tools,2,t_322.jpg,322,tbd,129.157239430885,134.28954167271,5.0728240657411,tool,1.57269817698216,0,1,1
17,3,animal,0,0,tools,2,a_136.jpg,136,tbd,136.839095036378,141.038173827896,4.14310008776889,animal,0.618178074898879,0,2,1
18,3,animal,0,0,tools,2,a_027.jpg,27,tbd,143.604426781443,149.519892865403,5.85632328580067,animal,0.664791762937057,0,2,1
19,3,animal,0,0,tools,2,a_140.jpg,140,tbd,152.08616955317,157.401691316328,5.26607482090437,animal,0.795239528247748,0,2,1
20,3,tool,0,0,tools,2,t_277.jpg,277,tbd,159.967957099183,165.650097194588,5.62812137754195,tool,1.1549900110308,0,1,1
21,3,tool,0,0,tools,2,t_242.jpg,242,tbd,168.199738759751,173.648667047446,5.38710407984306,tool,0.859658371807654,0,1,1
22,3,tool,0,0,tools,2,t_319.jpg,319,tbd,176.198194111032,182.930102942119,6.68524048482072,tool,1.09965752507333,0,1,1
23,3,animal,0,0,tools,2,a_074.jpg,74,tbd,185.496431267852,192.311584348763,6.75746702976669,animal,0.996415911672102,0,2,1
24,3,animal,0,0,tools,2,a_155.jpg,155,tbd,194.877942181905,199.410289198016,4.4739358477492,animal,1.25897957310553,0,2,1
25,3,tool,0,0,tools,2,t_268.jpg,268,tbd,201.976546962554,206.758870805728,4.717163093198,tool,0.886549564198504,0,1,1
26,3,tool,0,0,tools,2,t_236.jpg,236,tbd,209.325140437376,216.52363838196,7.12223800233873,tool,0.932155510070061,0,1,1
27,3,animal,0,0,tools,2,a_172.jpg,172,tbd,219.089936238086,224.038836782402,4.89436613350231,animal,0.647181612901477,0,2,1
28,3,tool,0,0,tools,2,t_228.jpg,228,tbd,226.588493422002,233.603697114534,6.94896605632326,tool,1.00063899923134,0,1,1
29,3,tool,0,0,tools,2,t_310.jpg,310,tbd,236.169983745015,241.202222513838,4.98172115877091,tool,0.672264835020997,0,1,1
30,3,tool,0,0,tools,2,t_279.jpg,279,tbd,243.751863437535,251.583600323817,7.78497720666924,tool,0.714481277639607,0,1,1
31,3,animal,0,0,tools,2,a_001.jpg,1,tbd,254.149866748138,261.798232085785,7.59179383098656,animal,1.47200029468377,0,2,1
32,3,animal,0,0,tools,2,a_006.jpg,6,tbd,264.347919836458,271.296431652731,6.89768586068584,animal,0.649167589825993,0,2,1
33,3,tool,0,0,tools,2,t_211.jpg,211,tbd,273.862731112521,279.344869989142,5.42848732246363,tool,1.16491091513763,0,1,1
34,3,tool,0,0,tools,2,t_189.jpg,189,tbd,281.911173297724,286.276858618526,4.31008473354109,tool,0.681101341844169,0,1,1
35,3,animal,0,0,tools,2,a_077.jpg,77,tbd,288.826522955711,294.691951209248,5.80410385974265,animal,0.624214264453713,0,2,1
36,3,tool,0,0,tools,2,t_289.jpg,289,tbd,297.241546909634,304.406715914923,7.10752233429947,tool,0.754715912858956,0,1,1
37,3,tool,0,0,tools,2,t_216.jpg,216,tbd,306.95636036668,312.388536785064,5.38648837597138,tool,0.773260357271738,0,1,1
38,3,tool,0,0,tools,2,t_224.jpg,224,tbd,314.938132806182,319.170560743156,4.18141074568186,tool,0.726345501221203,0,1,1
39,3,animal,0,0,tools,2,a_145.jpg,145,tbd,321.720176008237,327.318818474979,5.56244854535187,animal,0.723447681209109,0,2,1
40,3,animal,0,0,tools,2,a_004.jpg,4,tbd,329.868606614989,335.067494891279,5.14591331580511,animal,1.21697770066794,0,2,1
41,3,tool,0,0,tools,2,t_309.jpg,309,tbd,337.617130041787,342.59940122065,4.93081625766899,tool,1.66835029232652,0,1,1
42,3,tool,0,0,tools,2,t_329.jpg,329,tbd,345.165673097427,352.580794874825,7.35362490008784,tool,0.814197397120097,0,1,1
43,3,tool,0,0,tools,2,t_266.jpg,266,tbd,355.147038206391,362.762122714649,7.57097501587937,tool,0.846185352965222,0,1,1
44,3,animal,0,0,tools,2,a_035.jpg,35,tbd,365.311788334765,371.310450237909,5.93897181907412,animal,1.16313052787882,0,2,1
45,3,animal,0,0,tools,2,a_081.jpg,81,tbd,373.876806146655,379.509038629117,5.55929897550473,animal,1.12275733612978,0,2,1
46,3,animal,0,0,tools,2,a_087.jpg,87,tbd,382.05855703292,386.17429759993,4.05770823838654,animal,0.735733989033633,0,2,1
47,3,tool,0,0,tools,2,t_271.jpg,271,tbd,388.740619190277,394.006119159647,5.21239404177195,tool,1.0832398592438,0,1,1
48,3,animal,0,0,tools,2,a_105.jpg,105,tbd,396.572414770645,401.071451449958,4.44702354198923,animal,1.1040672790682,0,2,1
49,3,tool,0,0,tools,2,t_295.jpg,295,tbd,403.621086921199,407.786814642865,4.1109670137048,tool,1.80300735369019,0,1,1
50,3,animal,0,0,tools,2,a_179.jpg,179,tbd,410.353116027051,416.385161394051,5.98012659914197,animal,0.860880363422893,0,2,1
51,3,animal,0,0,tools,2,a_164.jpg,164,tbd,418.93482027878,423.533817475897,4.54557728404694,animal,1.02539988497983,0,2,1
52,3,animal,0,0,tools,2,a_157.jpg,157,tbd,426.083417345807,432.082134094245,5.93762556592218,animal,0.670343966835844,0,2,1
53,3,tool,0,0,tools,2,t_302.jpg,302,tbd,434.64845664679,439.397453475064,4.69311091384108,tool,0.826258871316895,0,1,1
54,3,tool,0,0,tools,2,t_200.jpg,200,tbd,441.947043722994,447.645626501379,5.64258616980908,tool,0.687469489750129,0,1,1
55,3,tool,0,0,tools,2,t_274.jpg,274,tbd,450.195457298839,455.061038221145,4.81616407295478,tool,0.899238070838692,0,1,1
56,3,animal,0,0,tools,2,a_044.jpg,44,tbd,457.62732998335,463.60943855073,5.92039984446582,animal,0.772097701206803,0,2,1
57,3,animal,0,0,tools,2,a_169.jpg,169,tbd,466.175704654318,472.191090202295,5.95381181733672,animal,0.644655522097764,0,2,1
58,3,animal,0,0,tools,2,a_167.jpg,167,tbd,474.740718938149,480.289542634908,5.49692824377845,animal,0.717509315130883,0,2,1
59,3,tool,0,0,tools,2,t_239.jpg,239,tbd,482.855856848402,487.088222242498,4.17765676468333,tool,0.728057251680639,0,1,1
60,3,animal,0,0,tools,2,a_134.jpg,134,tbd,489.637868939384,495.903211108262,6.20950254390388,animal,0.949292900094861,0,2,1
