trial,phase,object,toShock,seenBefore,shockedCategory,responseSide,filename,num,name,onsetFixationCross,onsetStimulus,interTrialTime,response,reactionTime,wasShocked,buttonPressed,isResponseCorrect
1,1,animal,0,0,tools,2,a_148.jpg,148,tbd,0.0320223578219156,7.61370239497592,7.51187496622342,animal,1.22047041595761,0,2,1
2,1,tool,0,0,tools,2,t_283.jpg,283,tbd,10.1967920745328,17.7287850234343,7.48493400581642,tool,0.831833128013386,0,1,1
3,1,animal,0,0,tools,2,a_126.jpg,126,tbd,20.2951103823725,28.0769073605097,7.73405051886755,animal,0.936203115683384,0,2,1
4,1,animal,0,0,tools,2,a_100.jpg,100,tbd,30.6432468319081,36.1421685115984,5.45002951659689,animal,0.842254538925772,0,2,1
5,1,animal,0,0,tools,2,a_022.jpg,22,tbd,38.6918472606703,46.290414461002,7.54823849015542,animal,0.652553235575397,0,2,1
6,1,tool,0,0,tools,2,t_205.jpg,205,tbd,48.8567196134609,55.2221213759794,6.31728923284041,tool,0.855345129378293,0,1,1
7,1,tool,0,0,tools,2,t_301.jpg,301,tbd,57.7717850503768,63.6372791853664,5.81346069855009,tool,0.713490841820203,0,1,1
8,1,tool,0,0,tools,2,t_223.jpg,223,tbd,66.203658428245,74.0021283167443,7.74085734928175,tool,0.902065072722507,0,1,1
9,1,animal,0,0,tools,2,a_096.jpg,96,tbd,76.5684889568338,82.0507399713279,5.43969941518,animal,0.676824423190737,0,2,1
10,1,tool,0,0,tools,2,t_248.jpg,248,tbd,84.6004023627738,92.0322962678583,7.38844990999814,tool,0.848821323581433,0,1,1
11,1,tool,0,0,tools,2,t_239.jpg,239,tbd,94.5986389466343,102.447048023256,7.81104978566776,tool,0.652589478941991,0,1,1
12,1,animal,0,0,tools,2,a_162.jpg,162,tbd,105.013483715979,111.445528047067,6.37516423354855,animal,0.778504062630418,0,2,1
13,1,tool,0,0,tools,2,t_279.jpg,279,tbd,114.011855971908,121.127069461368,7.06962689618207,tool,0.782363179215281,0,1,1
14,1,animal,0,0,tools,2,a_030.jpg,30,tbd,123.693470514413,130.592140799858,6.84651239724099,animal,0.628682649407892,0,2,1
15,1,animal,0,0,tools,2,a_007.jpg,7,tbd,133.141808323107,139.757187313246,6.56118841421176,animal,0.626092692092243,0,2,1
16,1,animal,0,0,tools,2,a_056.jpg,56,tbd,142.306842327724,149.505355259228,7.15149192172136,animal,0.596389489975081,0,2,1
17,1,tool,0,0,tools,2,t_344.jpg,344,tbd,152.055131512575,156.387584527703,4.28065887287995,tool,0.537496266136259,0,1,1
18,1,animal,0,0,tools,2,a_170.jpg,170,tbd,158.937247881362,164.136222675224,5.14786225951634,animal,0.588266485765416,0,2,1
19,1,tool,0,0,tools,2,t_193.jpg,193,tbd,166.685894047327,172.868029467936,6.13067467168717,tool,0.780949046484238,0,1,1
20,1,animal,0,0,tools,2,a_088.jpg,88,tbd,175.434352902447,180.266697187478,4.78386681502429,animal,0.609595225279008,0,2,1
21,1,tool,0,0,tools,2,t_180.jpg,180,tbd,182.816375615812,189.148466197284,6.29081503750574,tool,0.870253340649469,0,1,1
22,1,animal,0,0,tools,2,a_081.jpg,81,tbd,191.714788028105,198.163539267757,6.39282113307689,animal,0.667531688413874,0,2,1
23,1,animal,0,0,tools,2,a_160.jpg,160,tbd,200.729864626695,206.345485773832,5.57203496661683,animal,0.618878979398687,0,2,1
24,1,tool,0,0,tools,2,t_221.jpg,221,tbd,208.911758211042,213.7774874468,4.82230877886178,tool,1.08528939798725,0,1,1
25,1,tool,0,0,tools,2,t_278.jpg,278,tbd,216.343761808436,221.159313227187,4.75576794997745,tool,0.811932954430631,0,1,1
26,1,animal,0,0,tools,2,a_026.jpg,26,tbd,223.725818199264,229.79113676241,6.01370209509394,animal,0.69261049367924,0,2,1
27,1,tool,0,0,tools,2,t_336.jpg,336,tbd,232.340954390927,236.623234720851,4.24125379000811,tool,1.04569560593063,0,1,1
28,1,tool,0,0,tools,2,t_310.jpg,310,tbd,239.173063895926,243.405379057969,4.18107609822008,tool,0.703852351750356,0,1,1
29,1,animal,0,0,tools,2,a_054.jpg,54,tbd,245.955226515096,252.670556368211,6.66383130943151,animal,0.50503792676318,0,2,1
30,1,animal,0,0,tools,2,a_141.jpg,141,tbd,255.220252757858,261.352360145988,6.09069777706239,animal,0.669712063625411,0,2,1
31,1,tool,0,0,tools,2,t_294.jpg,294,tbd,263.918682939024,268.651099133458,4.68617257471615,tool,0.81637741740542,0,1,1
32,1,tool,0,0,tools,2,t_353.jpg,353,tbd,271.217416473952,276.599670759971,5.33939005067848,tool,0.98913350404564,0,1,1
33,1,tool,0,0,tools,2,t_230.jpg,230,tbd,279.14935399937,285.848000357778,6.64566524129882,tool,0.685159755789755,0,1,1
34,1,animal,0,0,tools,2,a_122.jpg,122,tbd,288.414354583113,294.929734599612,6.47448809150411,animal,0.744002303062189,0,2,1
35,1,tool,0,0,tools,2,t_277.jpg,277,tbd,297.496107106998,302.395128600277,4.85993338740857,tool,0.801889372583901,0,1,1
36,1,animal,0,0,tools,2,a_072.jpg,72,tbd,304.961427658718,309.327182553498,4.3283301237922,animal,1.05516667089523,0,2,1
37,1,animal,0,0,tools,2,a_019.jpg,19,tbd,311.876893055606,318.342292188075,6.4124332910333,animal,0.516634520784464,0,2,1
38,1,animal,0,0,tools,2,a_163.jpg,163,tbd,320.908609849306,325.707656103538,4.74916685108824,animal,0.593446400397625,0,2,1
39,1,tool,0,0,tools,2,t_228.jpg,228,tbd,328.257326834166,336.255792104041,7.95339175081823,tool,2.07875244194292,0,1,1
40,1,tool,0,0,tools,2,t_317.jpg,317,tbd,338.805486248524,343.554494848145,4.68941166356569,tool,1.54649295997206,0,1,1
41,1,tool,0,0,tools,2,t_282.jpg,282,tbd,346.104175842381,352.069658045926,5.90806984128976,tool,0.627748661085207,0,1,1
42,1,animal,0,0,tools,2,a_034.jpg,34,tbd,354.619344171965,360.18491226908,5.51299359571458,animal,0.653780057462427,0,2,1
43,1,animal,0,0,tools,2,a_018.jpg,18,tbd,362.751200743176,369.416442265116,6.60871823163476,animal,0.652718415515665,0,2,1
44,1,tool,0,0,tools,2,t_273.jpg,273,tbd,371.982932162518,376.26543636739,4.23590028436262,tool,0.68497372789534,0,1,1
45,1,tool,0,0,tools,2,t_197.jpg,197,tbd,378.831664863527,384.713869114457,5.84487099150735,tool,0.778014616826113,0,1,1
46,1,animal,0,0,tools,2,a_057.jpg,57,tbd,387.26358474837,393.029076702343,5.71745219609896,animal,0.641197194865526,0,2,1
47,1,animal,0,0,tools,2,a_138.jpg,138,tbd,395.578765715022,401.960838784213,6.33639723837044,animal,0.573778120206953,0,2,1
48,1,animal,0,0,tools,2,a_139.jpg,139,tbd,404.510526834679,410.359388151525,5.80520748146588,animal,0.635760369296804,0,2,1
49,1,tool,0,0,tools,2,t_330.jpg,330,tbd,412.925734037679,418.058038679525,5.08133883014006,tool,0.93735007387113,0,1,1
50,1,animal,0,0,tools,2,a_129.jpg,129,tbd,420.607674770475,426.423192191025,5.76203873921226,animal,0.803646694706913,0,2,1
51,1,animal,0,0,tools,2,a_032.jpg,32,tbd,428.989546737098,436.454594020257,7.41659929696686,animal,0.61372408231,0,2,1
52,1,tool,0,0,tools,2,t_329.jpg,329,tbd,439.021056334213,444.836586584272,5.7658238141592,tool,0.839140175391549,0,1,1
53,1,tool,0,0,tools,2,t_254.jpg,254,tbd,447.386277200641,454.551404860679,7.12549028837709,tool,0.737844459036751,0,1,1
54,1,tool,0,0,tools,2,t_348.jpg,348,tbd,457.101154813531,461.716951083479,4.56750401253979,tool,1.01863111326657,0,1,1
55,1,animal,0,0,tools,2,a_091.jpg,91,tbd,464.283301780699,471.598524443259,7.26428019274694,animal,0.677444729995841,0,2,1
56,1,tool,0,0,tools,2,t_234.jpg,234,tbd,474.148217304791,480.813632345852,6.61961851951325,tool,1.02785809680518,0,1,1
57,1,tool,0,0,tools,2,t_287.jpg,287,tbd,483.363262342786,490.261942571099,6.85236485071398,tool,0.701912850588087,0,1,1
58,1,tool,0,0,tools,2,t_313.jpg,313,tbd,492.811583793854,497.160694323931,4.30192470677281,tool,0.756504019009299,0,1,1
59,1,animal,0,0,tools,2,a_055.jpg,55,tbd,499.710354470213,506.625669441097,6.86310805258954,animal,0.742013408286766,0,2,1
60,1,animal,0,0,tools,2,a_068.jpg,68,tbd,509.175359736727,513.557695490133,4.34006348804833,animal,0.614250412955698,0,2,1
