trial,phase,object,toShock,seenBefore,shockedCategory,responseSide,filename,num,name,onsetFixationCross,onsetStimulus,interTrialTime,response,reactionTime,wasShocked,buttonPressed,isResponseCorrect
1,2,animal,0,0,animals,2,a_124.jpg,124,tbd,0.0309992645297825,8.34569990480577,8.18214506161054,0,1.53492280216324,0,2,1
2,2,tool,0,0,animals,2,t_293.jpg,293,tbd,12.9284520456104,19.643692990473,6.67544571428595,1,1.2751545179708,0,1,0
3,2,tool,0,0,animals,2,t_358.jpg,358,tbd,24.1929020501166,30.8415061777405,6.59568386892436,1,1.30266623991247,0,1,0
4,2,animal,1,0,animals,2,a_076.jpg,76,tbd,35.390715237384,43.489002498146,8.04374151810054,1,3.27765814945633,1,1,1
5,2,tool,0,0,animals,2,t_341.jpg,341,tbd,48.2548590714296,58.152772423201,9.84074773154688,0,2.36027285673481,0,2,1
6,2,animal,0,0,animals,2,a_048.jpg,48,tbd,62.7187114886719,72.0667781662223,9.28366877011482,0,1.45860726505362,0,2,1
7,2,animal,1,0,animals,2,a_108.jpg,108,tbd,76.6326200499952,82.7313576180341,6.04123574932957,1,3.07532649429777,1,1,1
8,2,tool,0,0,animals,2,t_357.jpg,357,tbd,87.4805297293888,96.8785237451766,9.34339684254532,0,2.69461991599474,0,2,1
9,2,animal,1,0,animals,2,a_081.jpg,81,tbd,101.444451585039,108.726263116048,7.2132796498959,0,3.45622519087647,1,2,0
10,2,tool,0,0,animals,2,t_298.jpg,298,tbd,113.475425284721,121.557116284765,8.01872126597538,1,3.05874915674849,0,1,0
11,2,tool,0,0,animals,2,t_354.jpg,354,tbd,126.122926736834,134.821141961261,8.64541147960888,1,2.68611924357992,0,1,0
12,2,tool,0,0,animals,2,t_217.jpg,217,tbd,139.387029388931,146.368911256398,6.91778573194918,0,2.74162506790799,0,2,1
13,2,animal,0,0,animals,2,a_025.jpg,25,tbd,150.918116467262,159.599718111461,8.63762711594768,1,2.93021112550832,0,1,0
14,2,tool,0,0,animals,2,t_208.jpg,208,tbd,164.165517979383,170.630812406253,6.4098019362469,0,3.09334808659514,0,2,1
15,2,animal,1,0,animals,2,a_085.jpg,85,tbd,175.180043596383,183.494933789082,8.25744700906542,0,2.49264972543733,1,2,0
16,2,tool,0,0,animals,2,t_212.jpg,212,tbd,188.260793569682,194.476155911485,6.15661494936162,0,2.62472703075309,0,2,1
17,2,animal,1,0,animals,2,a_066.jpg,66,tbd,199.025366895518,207.17364467866,8.09309558594891,1,3.2446166926411,1,1,1
18,2,animal,1,0,animals,2,a_007.jpg,7,tbd,211.939500931212,221.154233997461,9.16487251959164,1,1.45129041326618,1,1,1
19,2,tool,0,0,animals,2,t_296.jpg,296,tbd,225.920096023183,232.335296972806,6.36505044638336,0,0.885673041668269,0,2,1
20,2,animal,1,0,animals,2,a_127.jpg,127,tbd,236.901273563883,244.999593539276,8.05686309741687,1,1.25766918903992,1,1,1
21,2,animal,0,0,animals,2,a_159.jpg,159,tbd,249.765414511344,256.930606400296,7.11708981937499,0,3.58506150257745,0,2,1
22,2,tool,0,0,animals,2,t_268.jpg,268,tbd,261.496482602359,268.345042404865,6.79713738124193,0,1.84788700112949,0,2,1
23,2,animal,1,0,animals,2,a_029.jpg,29,tbd,272.894237352314,280.309315461704,7.35967894764832,1,3.94600683995668,1,1,1
24,2,animal,0,0,animals,2,a_001.jpg,1,tbd,285.075189995961,291.773782400843,6.6382713641034,1,2.02082488085671,0,1,0
25,2,tool,0,0,animals,2,t_228.jpg,228,tbd,296.322970933659,305.870983022677,9.49399316710774,0,2.75297672421402,0,2,1
26,2,tool,0,0,animals,2,t_222.jpg,222,tbd,310.436908617418,317.918530852591,7.43848699461428,0,0.800664713869992,0,2,1
27,2,animal,1,0,animals,2,a_086.jpg,86,tbd,322.484539837568,330.349560552024,7.80027585879294,0,2.33907249276854,1,2,0
28,2,animal,1,0,animals,2,a_136.jpg,136,tbd,335.115451122865,342.080584702798,6.90208470569761,1,1.37943304649343,1,1,1
29,2,animal,1,0,animals,2,a_077.jpg,77,tbd,346.846433899253,353.978230564349,7.07617331801591,1,1.86912456997106,1,1,1
30,2,tool,0,0,animals,2,t_306.jpg,306,tbd,358.744140379092,366.042505834237,7.23849365766893,0,0.748152919764834,0,2,1
31,2,animal,1,0,animals,2,a_138.jpg,138,tbd,370.591766210949,380.239784682528,9.59456389977204,0,2.92934835729284,1,2,0
32,2,animal,1,0,animals,2,a_173.jpg,173,tbd,384.989027715258,392.837346608599,7.788748393195,1,1.61902185565123,1,1,1
33,2,tool,0,0,animals,2,t_316.jpg,316,tbd,397.603180730664,404.018438770526,6.36810626569307,0,0.812218751866567,0,2,1
34,2,animal,0,0,animals,2,a_014.jpg,14,tbd,408.567689204556,414.76634431248,6.1479769660465,1,1.3597221604432,0,1,0
35,2,tool,0,0,animals,2,t_345.jpg,345,tbd,419.31558512456,426.764061344391,7.39360830681247,0,0.881351182297294,0,2,1
36,2,animal,0,0,animals,2,a_061.jpg,61,tbd,431.329900020847,441.327838678348,9.93557478312426,0,2.11398075549005,0,2,1
37,2,animal,1,0,animals,2,a_019.jpg,19,tbd,445.8937168048,452.259016716182,6.31032059279725,1,1.92903596463748,1,1,1
38,2,tool,0,0,animals,2,t_336.jpg,336,tbd,457.024911456535,466.839522773039,9.76731355688623,0,1.56294769478973,0,2,1
39,2,tool,0,0,animals,2,t_326.jpg,326,tbd,471.405400578759,478.920296801214,7.46741201264098,0,0.709467226867673,0,2,1
40,2,animal,1,0,animals,2,a_129.jpg,129,tbd,483.469720751083,489.801698886163,6.276573026533,1,2.98950126291311,1,1,1
41,2,tool,0,0,animals,2,t_315.jpg,315,tbd,494.567531083838,500.64954441922,6.01935426679903,0,0.891832052096106,0,2,1
42,2,tool,0,0,animals,2,t_250.jpg,250,tbd,505.198759893497,514.829928084869,9.58556628400734,0,1.06592584879309,0,2,1
43,2,animal,0,0,animals,2,a_143.jpg,143,tbd,519.395988707646,527.694261150605,8.2483649045223,0,3.46203267938381,0,2,1
44,2,tool,0,0,animals,2,t_346.jpg,346,tbd,532.243491378539,541.741318902513,9.43974810511497,0,0.699281750945374,0,2,1
45,2,tool,0,0,animals,2,t_183.jpg,183,tbd,546.307426672847,552.38924917288,6.02857195802161,0,0.798684516485991,0,2,1
46,2,tool,0,0,animals,2,t_223.jpg,223,tbd,556.955305305414,566.353347430954,9.3381243480841,0,1.32496671353692,0,2,1
47,2,animal,1,0,animals,2,a_050.jpg,50,tbd,570.902585356449,580.134010582188,9.17432947068941,1,2.9287983024642,1,1,1
48,2,animal,1,0,animals,2,a_126.jpg,126,tbd,584.899834761572,592.531513557777,7.57680900649654,0,1.91755794004985,1,2,0
49,2,tool,0,0,animals,2,t_338.jpg,338,tbd,597.297425296909,607.295340540997,9.94185782168721,0,1.67214496433644,0,2,1
50,2,tool,0,0,animals,2,t_253.jpg,253,tbd,611.844564675029,618.576371090368,6.68840027337109,0,0.741404725244138,0,2,1
51,2,tool,0,0,animals,2,t_301.jpg,301,tbd,623.125736987803,630.274189569709,7.1018426394169,0,0.603890697241695,0,2,1
52,2,animal,1,0,animals,2,a_049.jpg,49,tbd,634.84008084616,642.821761294133,7.91736349119723,1,1.19272743872352,1,1,1
53,2,tool,0,0,animals,2,t_344.jpg,344,tbd,647.587559814982,654.452648845285,6.81348418053753,0,1.36315366867439,0,2,1
54,2,animal,0,0,animals,2,a_008.jpg,8,tbd,659.002015384183,667.183661128987,8.13930824435396,1,2.01644112027134,0,1,0
55,2,animal,0,0,animals,2,a_040.jpg,40,tbd,671.732868905705,680.381079174827,8.59711527617123,1,2.50748003753233,0,1,0
56,2,animal,1,0,animals,2,a_036.jpg,36,tbd,684.930271556424,694.911426966638,9.93146260579207,1,1.02047977357051,1,1,1
57,2,tool,0,0,animals,2,t_342.jpg,342,tbd,699.677385211863,708.758848171685,9.03886231756547,0,0.725463077882523,0,2,1
58,2,tool,0,0,animals,2,t_271.jpg,271,tbd,713.308074550839,723.189344815067,9.83460716511317,0,0.791295820802588,0,2,1
59,2,tool,0,0,animals,2,t_330.jpg,330,tbd,727.738554836906,736.9532984873,9.15894497868086,0,0.909811949276445,0,2,1
60,2,animal,1,0,animals,2,a_128.jpg,128,tbd,741.502538978649,751.133859838299,9.57981000093194,1,0.894653528674098,1,1,1
