trial,phase,object,toShock,seenBefore,shockedCategory,responseSide,filename,num,name,onsetFixationCross,onsetStimulus,interTrialTime,response,reactionTime,wasShocked,buttonPressed,isResponseCorrect
1,3,tool,0,0,animals,2,t_340.jpg,340,tbd,0.0155051808978897,6.08087509552752,5.99442329088051,tool,0.783985235708315,0,1,1
2,3,animal,0,0,animals,2,a_114.jpg,114,tbd,8.6472128273108,14.0460708832543,5.34526560809586,animal,0.70997344357329,0,2,1
3,3,tool,0,0,animals,2,t_335.jpg,335,tbd,16.5957358597552,24.5607927693281,7.91739189048018,tool,0.562947985893516,0,1,1
4,3,animal,0,0,animals,2,a_070.jpg,70,tbd,27.1271189546596,33.6424313134366,6.45773740251503,animal,0.723463227048342,0,2,1
5,3,tool,0,0,animals,2,t_199.jpg,199,tbd,36.2087565365637,40.4911525920388,4.22079674625372,tool,0.640965755241268,0,1,1
6,3,animal,0,0,animals,2,a_074.jpg,74,tbd,43.0408387370353,49.772714416391,6.680273950829,animal,0.960727090087858,0,2,1
7,3,animal,0,0,animals,2,a_063.jpg,63,tbd,52.3224111456348,57.1880704271689,4.81340409474573,animal,0.65168567328692,0,2,1
8,3,animal,0,0,animals,2,a_113.jpg,113,tbd,59.7543770476805,66.4696845312883,6.67527718975431,animal,1.18149299829111,0,2,1
9,3,tool,0,0,animals,2,t_246.jpg,246,tbd,69.0192962658184,74.4515065677551,5.37961615736555,tool,0.797968950721042,0,1,1
10,3,animal,0,0,animals,2,a_027.jpg,27,tbd,77.0178212066348,84.7662612329223,7.70225036370899,animal,0.711569099028566,0,2,1
11,3,tool,0,0,animals,2,t_308.jpg,308,tbd,87.3158986262342,92.314702285561,4.95657778665777,tool,0.596326211402811,0,1,1
12,3,tool,0,0,animals,2,t_288.jpg,288,tbd,94.8645067816851,102.079723657722,7.16766261368551,tool,0.922696927548714,0,1,1
13,3,tool,0,0,animals,2,t_256.jpg,256,tbd,104.629335392253,110.078115493611,5.41285065934781,tool,0.752696276456845,0,1,1
14,3,animal,0,0,animals,2,a_166.jpg,166,tbd,112.627843654861,117.126878403586,4.44976900643133,animal,0.597171347507356,0,2,1
15,3,animal,0,0,animals,2,a_174.jpg,174,tbd,119.676558775356,126.208547738232,6.47962408781045,animal,0.773849054934544,0,2,1
16,3,animal,0,0,animals,2,a_004.jpg,4,tbd,128.758199564608,133.873772809042,5.06905153676266,animal,0.627832628823853,0,2,1
17,3,tool,0,0,animals,2,t_232.jpg,232,tbd,136.423444200239,144.321850501266,7.85644299020391,tool,0.768180388699875,0,1,1
18,3,tool,0,0,animals,2,t_193.jpg,193,tbd,146.888128897117,154.803072924089,7.87070411381043,tool,1.01034090939356,0,1,1
19,3,animal,0,0,animals,2,a_129.jpg,129,tbd,157.352874854336,162.285191479847,4.88487845190874,animal,0.669558938792761,0,2,1
20,3,animal,0,0,animals,2,a_022.jpg,22,tbd,164.851452235286,172.683228775526,7.7758101582783,animal,0.661881189991618,0,2,1
21,3,animal,0,0,animals,2,a_115.jpg,115,tbd,175.232866168838,179.315158691132,4.03674472143102,animal,0.722241227594168,0,2,1
22,3,tool,0,0,animals,2,t_220.jpg,220,tbd,181.864967998277,189.413455557456,7.49170948239051,tool,0.564211039397378,0,1,1
23,3,tool,0,0,animals,2,t_189.jpg,189,tbd,191.963081404317,197.111860960426,5.11139395728544,tool,0.795225706277051,0,1,1
24,3,animal,0,0,animals,2,a_117.jpg,117,tbd,199.661680851819,205.177159351204,5.45766301077299,animal,0.747237370758739,0,2,1
25,3,animal,0,0,animals,2,a_021.jpg,21,tbd,207.726839402239,212.975680186615,5.19395118538124,animal,0.764991964402725,0,2,1
26,3,tool,0,0,animals,2,t_344.jpg,344,tbd,215.542049991875,221.057592317477,5.4589071988903,tool,0.881385006895471,0,1,1
27,3,animal,0,0,animals,2,a_018.jpg,18,tbd,223.607210787438,227.806314269623,4.1546348129209,animal,0.916834537516479,0,2,1
28,3,animal,0,0,animals,2,a_168.jpg,168,tbd,230.355983415677,236.054774983303,5.65240032791945,animal,0.599643250339795,0,2,1
29,3,tool,0,0,animals,2,t_296.jpg,296,tbd,238.604433545109,246.102901876239,7.44917678389563,tool,0.695945787897472,0,1,1
30,3,animal,0,0,animals,2,a_017.jpg,17,tbd,248.652538307347,256.401003350946,7.69876306014452,animal,0.909305930380469,0,2,1
31,3,tool,0,0,animals,2,t_300.jpg,300,tbd,258.95062342458,266.98237809071,7.96907216071256,tool,0.604323732763987,0,1,1
32,3,animal,0,0,animals,2,a_097.jpg,97,tbd,269.531996239935,274.064395743309,4.48181673394161,animal,0.760531185293075,0,2,1
33,3,tool,0,0,animals,2,t_207.jpg,207,tbd,276.613972197016,281.712931059896,5.03993797477112,tool,0.80234120703517,0,1,1
34,3,animal,0,0,animals,2,a_104.jpg,104,tbd,284.279220360729,290.44461141178,6.11855407914727,animal,0.610958772845152,0,2,1
35,3,animal,0,0,animals,2,a_131.jpg,131,tbd,292.994301726328,297.793318096951,4.75414833095451,animal,0.89749391046098,0,2,1
36,3,animal,0,0,animals,2,a_077.jpg,77,tbd,300.34289743727,305.175252583026,4.78850747051641,animal,0.903773576422282,0,2,1
37,3,tool,0,0,animals,2,t_277.jpg,277,tbd,307.724835130693,312.257263500196,4.48517008895576,tool,1.01333945871102,0,1,1
38,3,animal,0,0,animals,2,a_002.jpg,2,tbd,314.823578780546,322.571898852031,7.71100150385072,animal,0.737971343402023,0,2,1
39,3,tool,0,0,animals,2,t_252.jpg,252,tbd,325.12165587941,332.753479311074,7.58218898906163,tool,0.613624720210282,0,1,1
40,3,tool,0,0,animals,2,t_318.jpg,318,tbd,335.303110289689,339.785471962398,4.44089627377623,tool,0.57289653682983,0,1,1
41,3,animal,0,0,animals,2,a_011.jpg,11,tbd,342.335152654903,348.133847649292,5.75941164761786,animal,0.850929637298577,0,2,1
42,3,tool,0,0,animals,2,t_270.jpg,270,tbd,350.700234132759,355.099314778629,4.35433819393215,tool,0.930696052583698,0,1,1
43,3,tool,0,0,animals,2,t_244.jpg,244,tbd,357.665604720933,363.030954333051,5.31529801998943,tool,0.573405222166912,0,1,1
44,3,tool,0,0,animals,2,t_338.jpg,338,tbd,365.580824579803,372.946005164701,7.32298125095976,tool,0.5516536318828,0,1,1
45,3,animal,0,0,animals,2,a_057.jpg,57,tbd,375.49561882364,382.760827665271,7.21474257122363,animal,0.744174995224057,0,2,1
46,3,animal,0,0,animals,2,a_006.jpg,6,tbd,385.310462171969,389.476224313144,4.11731033187208,animal,0.755121672748828,0,2,1
47,3,tool,0,0,animals,2,t_239.jpg,239,tbd,392.025885120093,397.60808735555,5.53321326900316,tool,0.744559235472479,0,1,1
48,3,tool,0,0,animals,2,t_200.jpg,200,tbd,400.174376014914,406.406427938024,6.1775248719279,tool,0.751549008203256,0,1,1
49,3,animal,0,0,animals,2,a_127.jpg,127,tbd,408.972738407352,413.505068632016,4.47648111067006,animal,0.618099932384212,0,2,1
50,3,tool,0,0,animals,2,t_269.jpg,269,tbd,416.054749965992,423.286625484981,7.17830566944582,tool,1.09500013351681,0,1,1
51,3,tool,0,0,animals,2,t_240.jpg,240,tbd,425.836264802701,433.784697387941,7.90985388896387,tool,0.551301144376339,0,1,1
52,3,tool,0,0,animals,2,t_257.jpg,257,tbd,436.350980274079,442.39978455884,6.00403419945817,tool,0.600550288254453,0,1,1
53,3,animal,0,0,animals,2,a_078.jpg,78,tbd,444.966048200891,452.547837009237,7.52842759962684,animal,0.684879155571252,0,2,1
54,3,tool,0,0,animals,2,t_309.jpg,309,tbd,455.114136894317,463.062522010814,7.90032220042197,tool,0.612621461865274,0,1,1
55,3,tool,0,0,animals,2,t_243.jpg,243,tbd,465.612142725917,473.660573354677,7.9977192860967,tool,0.90688181702717,0,1,1
56,3,animal,0,0,animals,2,a_003.jpg,3,tbd,476.210222615175,481.175847546016,4.91338017789879,animal,0.517951464260477,0,2,1
57,3,tool,0,0,animals,2,t_192.jpg,192,tbd,483.742150959179,489.707592109,5.91606079579543,tool,0.540517400111639,0,1,1
58,3,tool,0,0,animals,2,t_294.jpg,294,tbd,492.257220842474,496.989589491162,4.69481993870551,tool,1.04982977364307,0,1,1
59,3,animal,0,0,animals,2,a_035.jpg,35,tbd,499.555850567336,505.454474326534,5.83660379049472,animal,0.528236145231858,0,2,1
60,3,animal,0,0,animals,2,a_015.jpg,15,tbd,508.004277860455,515.65263003749,7.59008471126568,animal,0.85747230576635,0,2,1
