trial,phase,object,toShock,seenBefore,shockedCategory,responseSide,filename,num,name,onsetFixationCross,onsetStimulus,interTrialTime,response,reactionTime,wasShocked,buttonPressed,isResponseCorrect
1,2,tool,0,0,animals,1,t_327.jpg,327,tbd,0.0283275153915383,10.1262109546051,9.97735681290014,0,0.800830546228099,0,2,1
2,2,animal,1,0,animals,1,a_059.jpg,59,tbd,14.7089321389117,22.4574789698759,7.69791826789586,1,0.552936891612717,1,1,1
3,2,animal,1,0,animals,1,a_072.jpg,72,tbd,27.2066894010682,34.0053074191137,6.74913332403626,0,1.65964887596328,1,2,0
4,2,tool,0,0,animals,1,t_235.jpg,235,tbd,38.7712088874691,45.38651768609,6.55984397227912,0,0.683752093542807,0,2,1
5,2,tool,0,0,animals,1,t_316.jpg,316,tbd,49.9524487261911,57.4509510552066,7.44125404038064,0,0.989798168374818,0,2,1
6,2,animal,1,0,animals,1,a_129.jpg,129,tbd,62.000214792517,68.7155867438128,6.66156530205105,1,0.804565823299981,1,1,1
7,2,animal,0,0,animals,1,a_107.jpg,107,tbd,73.4646396942358,81.8964323995087,8.37626462860002,1,0.824297105299138,0,1,0
8,2,animal,1,0,animals,1,a_133.jpg,133,tbd,86.4456608559949,93.4942759072437,6.99248849640365,0,0.780887258549228,1,2,0
9,2,tool,0,0,animals,1,t_290.jpg,290,tbd,98.2601574900441,108.274880819425,9.95565697015158,1,1.33486611763828,0,1,0
10,2,animal,1,0,animals,1,a_135.jpg,135,tbd,112.840765352985,122.038814259263,9.14531436092611,1,1.45444373561213,1,1,1
11,2,tool,0,0,animals,1,t_196.jpg,196,tbd,126.80483022993,133.270206430962,6.40447534231544,0,2.68050337110935,0,2,1
12,2,animal,1,0,animals,1,a_127.jpg,127,tbd,137.81946664019,146.134453196592,8.25622530553189,0,2.25475202586767,1,2,0
13,2,tool,0,0,animals,1,t_255.jpg,255,tbd,150.900329647636,160.081854940299,9.11936726193395,0,1.34085134908537,0,2,1
14,2,tool,0,0,animals,1,t_203.jpg,203,tbd,164.631088207807,172.546222430495,7.86157591635964,0,1.23286925506591,0,2,1
15,2,tool,0,0,animals,1,t_239.jpg,239,tbd,177.095475583558,183.960745493088,6.81465979271147,0,1.82685592725329,0,2,1
16,2,animal,0,0,animals,1,a_037.jpg,37,tbd,188.510033285506,197.224935360372,8.64539631794959,1,0.891080498038264,0,1,0
17,2,tool,0,0,animals,1,t_233.jpg,233,tbd,201.774166703471,209.539353574771,7.70117491851354,1,1.39914938288484,0,1,0
18,2,animal,1,0,animals,1,a_119.jpg,119,tbd,214.105226241144,220.304000649461,6.13645535236723,1,1.66198542872553,1,1,1
19,2,tool,0,0,animals,1,t_242.jpg,242,tbd,225.053197609794,233.501545681424,8.39006215754755,0,2.65897084267044,0,2,1
20,2,tool,0,0,animals,1,t_280.jpg,280,tbd,238.050788570975,244.566189131811,6.45990390266001,1,2.0269338016542,0,1,0
21,2,tool,0,0,animals,1,t_349.jpg,349,tbd,249.115398344212,259.096813047528,9.93080231340391,0,0.783535886237587,0,2,1
22,2,animal,0,0,animals,1,a_063.jpg,63,tbd,263.646043107688,269.811446667395,6.10587094985072,1,1.17232254982946,0,1,0
23,2,animal,0,0,animals,1,a_171.jpg,171,tbd,274.360723554831,283.192273335592,8.77467094725029,1,1.58609990409514,0,1,0
24,2,tool,0,0,animals,1,t_309.jpg,309,tbd,287.758203092754,294.706857626452,6.89395345390123,0,0.548829562214451,0,2,1
25,2,animal,1,0,animals,1,a_057.jpg,57,tbd,299.256074857222,309.170777691651,9.85803531812345,1,1.05246653408039,1,1,1
26,2,tool,0,0,animals,1,t_320.jpg,320,tbd,313.920026611016,323.418157529174,9.43868754479803,0,0.745628244379077,0,2,1
27,2,animal,1,0,animals,1,a_064.jpg,64,tbd,327.96742030428,334.749380962312,6.71189877451358,1,0.532885195583731,1,1,1
28,2,tool,0,0,animals,1,t_282.jpg,282,tbd,339.515272808625,348.446585534322,8.87300794236401,0,0.671204628807118,0,2,1
29,2,tool,0,0,animals,1,t_256.jpg,256,tbd,353.012729221573,361.244447580526,8.17370062524186,0,0.635836885551271,0,2,1
30,2,animal,1,0,animals,1,a_100.jpg,100,tbd,365.810329548209,374.558625564587,8.69393029126853,1,0.706148039968411,1,1,1
31,2,tool,0,0,animals,1,t_201.jpg,201,tbd,379.307856843539,387.222952578055,7.86401818095738,0,0.660293552840812,0,2,1
32,2,tool,0,0,animals,1,t_269.jpg,269,tbd,391.78886437407,398.220863953266,6.3622915698036,0,0.748735522781317,0,2,1
33,2,tool,0,0,animals,1,t_342.jpg,342,tbd,402.770146934663,410.485252676104,7.65364938485817,0,0.614808552162685,0,2,1
34,2,animal,1,0,animals,1,a_077.jpg,77,tbd,415.034527959866,424.699335434012,9.59351312272154,0,1.26828831588364,1,2,0
35,2,animal,0,0,animals,1,a_060.jpg,60,tbd,429.465184622602,438.530053228794,9.00038180065105,1,1.33309052998038,0,1,0
36,2,tool,0,0,animals,1,t_288.jpg,288,tbd,443.096003192246,451.77758477386,8.61624556931837,0,0.6471036563712,0,2,1
37,2,animal,1,0,animals,1,a_145.jpg,145,tbd,456.32682830488,464.458544450765,8.07226643725605,1,0.542615967614438,1,1,1
38,2,tool,0,0,animals,1,t_322.jpg,322,tbd,469.207810369071,476.556308576645,7.29746494987867,0,0.659308576377953,0,2,1
39,2,tool,0,0,animals,1,t_212.jpg,212,tbd,481.122241541155,487.454316845829,6.27558923866654,0,0.693642591486878,0,2,1
40,2,animal,0,0,animals,1,a_076.jpg,76,tbd,492.003547226724,498.135651782408,6.06515202928949,1,0.613791502223648,0,1,0
41,2,tool,0,0,animals,1,t_187.jpg,187,tbd,502.701519317026,512.166378172882,9.41366072980562,0,0.479589982645848,0,2,1
42,2,animal,1,0,animals,1,a_151.jpg,151,tbd,516.732290289632,526.297045516085,9.49437179403846,1,0.636519088395744,1,1,1
43,2,animal,1,0,animals,1,a_137.jpg,137,tbd,531.062956285749,538.761370990027,7.64093931889147,1,0.641537625261662,1,1,1
44,2,tool,0,0,animals,1,t_266.jpg,266,tbd,543.527292343938,551.375716942883,7.7843749658867,0,1.91978561802352,0,2,1
45,2,tool,0,0,animals,1,t_275.jpg,275,tbd,555.941637078002,563.673460477592,7.67328985207902,0,0.576453164572285,0,2,1
46,2,tool,0,0,animals,1,t_286.jpg,286,tbd,568.222730308863,577.354212639104,9.05928624700814,0,1.61925297379912,0,2,1
47,2,animal,1,0,animals,1,a_019.jpg,19,tbd,581.920176073416,589.8018435478,7.83295584616738,1,1.22907752867559,1,1,1
48,2,animal,0,0,animals,1,a_146.jpg,146,tbd,594.56780050327,604.232503417883,9.61656582674908,1,0.538990702567389,0,1,0
49,2,animal,1,0,animals,1,a_058.jpg,58,tbd,608.781803718957,614.847271136955,6.00525874977784,1,0.838496674808994,1,1,1
50,2,tool,0,0,animals,1,t_258.jpg,258,tbd,619.5964857377,627.278296003201,7.61107552747257,0,0.863960128525832,0,2,1
51,2,animal,1,0,animals,1,a_148.jpg,148,tbd,631.84420266746,641.209000295049,9.3021474215568,1,0.379762890758229,1,1,1
52,2,animal,1,0,animals,1,a_153.jpg,153,tbd,645.958247931474,654.523160959432,8.50071655851227,1,0.69119025347436,1,1,1
53,2,animal,1,0,animals,1,a_036.jpg,36,tbd,659.272433933904,668.703900451921,9.378916891148,1,0.714987169353208,1,1,1
54,2,tool,0,0,animals,1,t_209.jpg,209,tbd,673.469802561746,682.101362028698,8.57059807689991,0,0.549025210420496,0,2,1
55,2,animal,0,0,animals,1,a_068.jpg,68,tbd,686.667347272974,695.665508179832,8.92781278980838,1,0.774397832052273,0,1,0
56,2,animal,0,0,animals,1,a_007.jpg,7,tbd,700.214803669885,709.412999472685,9.1412917271427,1,1.25961372343363,0,1,0
57,2,animal,1,0,animals,1,a_111.jpg,111,tbd,713.978921852948,721.427228229059,7.39839377907801,1,1.52560900670824,1,1,1
58,2,tool,0,0,animals,1,t_218.jpg,218,tbd,726.176625969354,732.325392375338,6.08751800299817,0,0.548903651944784,0,2,1
59,2,tool,0,0,animals,1,t_248.jpg,248,tbd,736.891341697321,743.290033933391,6.34201033048958,0,0.654635150119248,0,2,1
60,2,animal,0,0,animals,1,a_101.jpg,101,tbd,747.839275860737,755.537654321986,7.64671890303293,1,0.729499455258974,0,1,0
