trial,phase,object,toShock,seenBefore,shockedCategory,responseSide,filename,num,name,onsetFixationCross,onsetStimulus,interTrialTime,response,reactionTime,wasShocked,buttonPressed,isResponseCorrect
1,3,tool,0,0,animals,2,t_236.jpg,236,tbd,0.0153129089148933,6.23060084096869,6.14427866914081,tool,1.25977127513215,0,1,1
2,3,tool,0,0,animals,2,t_246.jpg,246,tbd,8.81357589028903,14.3957208860247,5.52276161322348,tool,0.689804140507476,0,1,1
3,3,tool,0,0,animals,2,t_331.jpg,331,tbd,16.945324766365,22.0941942994541,5.1034373778081,tool,0.81943426311318,0,1,1
4,3,animal,0,0,animals,2,a_035.jpg,35,tbd,24.6605031685503,30.9091212159301,6.20357031582805,animal,0.70579710493621,0,2,1
5,3,tool,0,0,animals,2,t_335.jpg,335,tbd,33.4587584523642,41.4237537969439,7.91582896134197,tool,0.809545463993345,0,1,1
6,3,tool,0,0,animals,2,t_310.jpg,310,tbd,43.9733419614322,51.2551425875645,7.22152346476283,,2.50046019394813,0,,0
7,3,animal,0,0,animals,2,a_118.jpg,118,tbd,53.7714195598955,59.8368183528546,6.00939526628917,animal,1.09120400599204,0,2,1
8,3,animal,0,0,animals,2,a_038.jpg,38,tbd,62.3864405148997,66.9521165803944,4.49902980837453,animal,0.713886278607788,0,2,1
9,3,tool,0,0,animals,2,t_214.jpg,214,tbd,69.5183625860827,76.150259159097,6.59035517262927,tool,0.915008133873016,0,1,1
10,3,animal,0,0,animals,2,a_141.jpg,141,tbd,78.7165436525856,86.2316393701449,7.47077942352154,animal,1.58786374592364,0,2,1
11,3,animal,0,0,animals,2,a_176.jpg,176,tbd,88.7812596078002,96.7962499650021,7.97177710893128,animal,0.983541437528402,0,2,1
12,3,animal,0,0,animals,2,a_037.jpg,37,tbd,99.3458352429052,104.661378124571,5.26741052372811,animal,0.797700522364721,0,2,1
13,3,tool,0,0,animals,2,t_333.jpg,333,tbd,107.211001890275,113.093093548332,5.83419034290988,tool,0.780142066611006,0,1,1
14,3,animal,0,0,animals,2,a_146.jpg,146,tbd,115.642664072578,122.057953864875,6.36560312056874,animal,0.976605935706175,0,2,1
15,3,tool,0,0,animals,2,t_295.jpg,295,tbd,124.607529200096,130.006468412142,5.33287723804604,tool,1.49433614327427,0,1,1
16,3,tool,0,0,animals,2,t_185.jpg,185,tbd,132.572694532465,138.654762071501,6.03379560277797,tool,0.841243696537276,0,1,1
17,3,animal,0,0,animals,2,a_071.jpg,71,tbd,141.204331954283,146.103265232792,4.84262896812734,animal,0.751904849613311,0,2,1
18,3,animal,0,0,animals,2,a_010.jpg,10,tbd,148.652900224106,154.21836236157,5.51103380331328,animal,1.1801121102726,0,2,1
19,3,tool,0,0,animals,2,t_242.jpg,242,tbd,156.784610291648,164.483009616059,7.64746355354554,tool,0.9896889016145,0,1,1
20,3,tool,0,0,animals,2,t_219.jpg,219,tbd,167.032623439081,173.29784384108,6.21508609448196,tool,0.887082668065887,0,1,1
21,3,animal,0,0,animals,2,a_065.jpg,65,tbd,175.864214290659,181.479667591966,5.56973563567114,animal,0.801496702515578,0,2,1
22,3,tool,0,0,animals,2,t_294.jpg,294,tbd,184.02927596255,190.294453707235,6.21487363909023,tool,0.842029168418776,0,1,1
23,3,tool,0,0,animals,2,t_266.jpg,266,tbd,192.844284024141,197.509896231958,4.61936222606757,tool,1.31280938992313,0,1,1
24,3,animal,0,0,animals,2,a_101.jpg,101,tbd,200.076135502281,205.025077584875,4.89918248776041,animal,1.46697067497826,0,2,1
25,3,tool,0,0,animals,2,t_300.jpg,300,tbd,207.591345400318,215.123063037127,7.47561902292826,tool,1.27307298004507,0,1,1
26,3,tool,0,0,animals,2,t_339.jpg,339,tbd,217.67267686015,225.321010610969,7.60103643527379,tool,0.978372846524508,0,1,1
27,3,animal,0,0,animals,2,a_097.jpg,97,tbd,227.870714238861,233.8859236558,5.9713940271444,animal,1.53773787477621,0,2,1
28,3,tool,0,0,animals,2,t_249.jpg,249,tbd,236.435694316613,243.884140066934,7.38530029917232,tool,1.21678745700683,0,1,1
29,3,animal,0,0,animals,2,a_148.jpg,148,tbd,246.433781152149,252.782383451603,6.27600102787211,animal,1.06486295467857,0,2,1
30,3,animal,0,0,animals,2,a_125.jpg,125,tbd,255.348672756068,259.447750941149,4.03734278143694,animal,0.597666909685358,0,2,1
31,3,tool,0,0,animals,2,t_198.jpg,198,tbd,262.014038962687,268.179368124798,6.11258828371797,tool,1.09024341461372,0,1,1
32,3,tool,0,0,animals,2,t_215.jpg,215,tbd,270.728990607576,275.161333061769,4.37831313410818,tool,0.992606597696977,0,1,1
33,3,tool,0,0,animals,2,t_297.jpg,297,tbd,277.710943998207,282.159959047258,4.39606510322912,tool,0.610071848824191,0,1,1
34,3,animal,0,0,animals,2,a_117.jpg,117,tbd,284.709597245887,291.041587568771,6.27047082803261,animal,1.28174716829744,0,2,1
35,3,animal,0,0,animals,2,a_018.jpg,18,tbd,293.607858270799,300.256403063062,6.59919335749002,animal,0.732108328204049,0,2,1
36,3,tool,0,0,animals,2,t_305.jpg,305,tbd,302.806027470229,308.538131845298,5.67315117156861,tool,2.10572064250482,0,1,1
37,3,animal,0,0,animals,2,a_093.jpg,93,tbd,311.087764270758,318.636154181694,7.49862389166341,animal,1.46093642917458,0,2,1
38,3,tool,0,0,animals,2,t_273.jpg,273,tbd,321.185812907152,327.117727986383,5.89089403990038,tool,0.847611824018713,0,1,1
39,3,animal,0,0,animals,2,a_064.jpg,64,tbd,329.68412666035,336.849288400525,7.10843131059975,,2.50093263171129,0,,0
40,3,animal,0,0,animals,2,a_166.jpg,166,tbd,339.365522715543,346.697357804294,7.27164221131066,animal,0.996457302231647,0,2,1
41,3,animal,0,0,animals,2,a_122.jpg,122,tbd,349.24694372366,353.645959590577,4.340386818923,animal,0.598119462083559,0,2,1
42,3,tool,0,0,animals,2,t_349.jpg,349,tbd,356.212268780406,362.994101640072,6.7286447222549,tool,0.746238803775668,0,1,1
43,3,tool,0,0,animals,2,t_194.jpg,194,tbd,365.543776081381,373.025505440934,7.43985179432655,tool,0.682054621684983,0,1,1
44,3,animal,0,0,animals,2,a_120.jpg,120,tbd,375.575146526149,379.690880948773,4.06326773134288,animal,1.15689723063133,0,2,1
45,3,animal,0,0,animals,2,a_078.jpg,78,tbd,382.240509525453,388.00603446218,5.69666739170773,animal,0.768987018824191,0,2,1
46,3,tool,0,0,animals,2,t_243.jpg,243,tbd,390.572211189826,395.087784476854,4.46608579589014,tool,1.03240009781257,0,1,1
47,3,tool,0,0,animals,2,t_313.jpg,313,tbd,397.637486821819,404.935948175736,7.24291359267113,tool,0.697560394694847,0,1,1
48,3,animal,0,0,animals,2,a_002.jpg,2,tbd,407.502233952153,413.284329811795,5.72596067854118,animal,0.964429357522022,0,2,1
49,3,tool,0,0,animals,2,t_237.jpg,237,tbd,415.850581911385,423.265729619548,7.35455011742219,tool,1.56832124400535,0,1,1
50,3,animal,0,0,animals,2,a_160.jpg,160,tbd,425.831995831332,431.963830663498,6.08581618850388,animal,1.60240219219031,0,2,1
51,3,animal,0,0,animals,2,a_104.jpg,104,tbd,434.530257241121,439.812442103805,5.22859061303849,animal,0.924060785506299,0,2,1
52,3,tool,0,0,animals,2,t_334.jpg,334,tbd,442.378721144855,447.094261332375,4.67436541561679,tool,0.838378600450596,0,1,1
53,3,tool,0,0,animals,2,t_256.jpg,256,tbd,449.643976185876,455.709363432494,6.00760033313475,tool,0.634572221033523,0,1,1
54,3,tool,0,0,animals,2,t_252.jpg,252,tbd,458.275663000371,464.857570333934,6.53763809492652,tool,1.06156679521609,0,1,1
55,3,animal,0,0,animals,2,a_107.jpg,107,tbd,467.407187043541,471.839508650176,4.37728649857764,animal,1.27383247266062,0,2,1
56,3,animal,0,0,animals,2,a_145.jpg,145,tbd,474.389159998805,481.570934036281,7.13118083851901,animal,0.881699507569465,0,2,1
57,3,tool,0,0,animals,2,t_359.jpg,359,tbd,484.120585064177,489.636148606083,5.4562564932382,tool,1.20176226322474,0,1,1
58,3,animal,0,0,animals,2,a_013.jpg,13,tbd,492.202328664217,497.734468063186,5.47344499970009,animal,0.7906418595785,0,2,1
59,3,animal,0,0,animals,2,a_175.jpg,175,tbd,500.284088942304,507.249208410044,6.90809767739112,animal,0.606161167464961,0,2,1
60,3,animal,0,0,animals,2,a_142.jpg,142,tbd,509.798883813549,516.464189401881,6.6086877157884,animal,0.955469718075619,0,2,1
