trial,phase,object,toShock,seenBefore,shockedCategory,responseSide,filename,num,name,onsetFixationCross,onsetStimulus,interTrialTime,response,reactionTime,wasShocked,buttonPressed,isResponseCorrect
1,2,animal,0,0,tools,2,a_002.jpg,2,tbd,0.0284798089714968,9.94313213566693,9.79238461546352,0,0.848229883596105,0,2,1
2,2,tool,1,0,tools,2,t_188.jpg,188,tbd,14.5259802996998,23.7907614988235,9.22260741583885,1,0.861259533875455,1,1,1
3,2,tool,1,0,tools,2,t_219.jpg,219,tbd,28.5401402298048,37.7215969693389,9.11739568385963,1,0.891077560107078,1,1,1
4,2,animal,0,0,tools,2,a_142.jpg,142,tbd,42.4876790807684,52.2024938290597,9.66143974288805,0,0.627847448734428,0,2,1
5,2,tool,0,0,tools,2,t_342.jpg,342,tbd,56.7518569721869,63.7005251407618,6.89904856541747,1,0.862365758369378,0,1,0
6,2,animal,0,0,tools,2,a_135.jpg,135,tbd,68.2498283059304,75.8149178623244,7.52970115707449,0,1.14357739011575,0,2,1
7,2,tool,1,0,tools,2,t_214.jpg,214,tbd,80.3643220598833,89.6958603309531,9.27916895927772,1,1.74229726161502,1,1,1
8,2,animal,0,0,tools,2,a_155.jpg,155,tbd,94.4451925549611,103.493370892847,9.007641181744,0,0.823388103526668,0,2,1
9,2,animal,0,0,tools,2,a_128.jpg,128,tbd,108.059456660687,114.79146840482,6.68249207301517,0,2.50701976573055,0,2,1
10,2,tool,0,0,tools,2,t_257.jpg,257,tbd,119.340788248352,126.939319526055,7.54696060063655,0,1.43152194867162,0,2,1
11,2,tool,1,0,tools,2,t_212.jpg,212,tbd,131.5052821306,140.27012491137,8.71977887977869,0,1.10741356753806,1,2,0
12,2,tool,1,0,tools,2,t_306.jpg,306,tbd,145.019586713429,152.551357711808,7.49263333446409,1,1.1496637096252,1,1,1
13,2,animal,0,0,tools,2,a_098.jpg,98,tbd,157.317401655446,165.282579478868,7.92310385509778,0,0.71408292412525,0,2,1
14,2,animal,0,0,tools,2,a_125.jpg,125,tbd,169.848532782018,179.06344567606,9.16147691538361,0,0.643879204337281,0,2,1
15,2,animal,0,0,tools,2,a_177.jpg,177,tbd,183.629413733146,189.844903634397,6.17428768119154,0,1.35600745325064,0,2,1
16,2,tool,1,0,tools,2,t_331.jpg,331,tbd,194.394190762679,201.292687208263,6.85213809825954,0,1.38170624458235,1,2,0
17,2,animal,0,0,tools,2,a_157.jpg,157,tbd,206.058764829364,215.273527938878,9.16593193285759,0,0.662549348656285,0,2,1
18,2,tool,1,0,tools,2,t_226.jpg,226,tbd,219.823032527353,226.45507897531,6.57711868648037,0,1.68955995737724,1,2,0
19,2,tool,0,0,tools,2,t_312.jpg,312,tbd,231.204400935711,237.336505116463,6.07929173663601,1,0.89049125150359,0,1,0
20,2,tool,0,0,tools,2,t_261.jpg,261,tbd,241.885795452121,251.25068724162,9.31876129952047,1,1.28098561100978,0,1,0
21,2,animal,0,0,tools,2,a_087.jpg,87,tbd,255.800003557036,262.765247131696,6.92095460629618,0,0.789023940454172,0,2,1
22,2,animal,0,0,tools,2,a_074.jpg,74,tbd,267.331293128055,274.496568648196,7.11179012651036,0,1.61728459247479,0,2,1
23,2,animal,0,0,tools,2,a_024.jpg,24,tbd,279.062541516349,286.544457680633,7.43184779131026,0,0.768793727726916,0,2,1
24,2,tool,1,0,tools,2,t_250.jpg,250,tbd,291.110432152474,300.208721593915,9.04251528214248,1,1.94636633313166,1,1,1
25,2,animal,0,0,tools,2,a_008.jpg,8,tbd,304.957984217833,313.389731225028,8.38261085325824,0,0.725961767365334,0,2,1
26,2,tool,0,0,tools,2,t_296.jpg,296,tbd,317.938977619616,325.487494015088,7.50114291844752,1,1.23166865411804,0,1,0
27,2,animal,0,0,tools,2,a_121.jpg,121,tbd,330.036892439367,338.401949729544,8.32266635625344,0,0.729885031500089,0,2,1
28,2,tool,1,0,tools,2,t_252.jpg,252,tbd,342.951267327911,350.733110813022,7.73934115057377,1,1.03030372255671,1,1,1
29,2,animal,0,0,tools,2,a_062.jpg,62,tbd,355.499050516891,361.831152644922,6.27565617468957,0,1.46680694982024,0,2,1
30,2,animal,0,0,tools,2,a_076.jpg,76,tbd,366.397102740694,372.962518166641,6.50516732421405,0,0.855936249469778,0,2,1
31,2,animal,0,0,tools,2,a_161.jpg,161,tbd,377.511827105088,387.176672195171,9.61501657947846,0,0.819471895621973,0,2,1
32,2,tool,0,0,tools,2,t_339.jpg,339,tbd,391.742635761928,399.591108023887,7.80809771942711,1,1.17161371815564,0,1,0
33,2,tool,0,0,tools,2,t_220.jpg,220,tbd,404.140466676685,411.039144659835,6.85692839307314,1,0.954108621633168,0,1,0
34,2,tool,1,0,tools,2,t_227.jpg,227,tbd,415.588404846145,425.103277134788,9.462334382526,1,2.0447067718751,1,1,1
35,2,animal,0,0,tools,2,a_021.jpg,21,tbd,429.869214272756,437.284458360597,7.36175567903767,0,0.934960578069877,0,2,1
36,2,tool,1,0,tools,2,t_286.jpg,286,tbd,441.850433794652,447.999247129131,6.10144977418402,1,2.80175562536533,1,1,1
37,2,tool,1,0,tools,2,t_334.jpg,334,tbd,452.748518412966,462.496712017969,9.69596052156312,1,3.26303007039314,1,1,1
38,2,tool,1,0,tools,2,t_200.jpg,200,tbd,467.262639854542,474.07799241589,6.76093628985635,1,1.1672956258526,1,1,1
39,2,animal,0,0,tools,2,a_070.jpg,70,tbd,478.843919931724,485.192672839212,6.29894048267585,0,0.527021613180295,0,2,1
40,2,tool,0,0,tools,2,t_324.jpg,324,tbd,489.741960288231,498.12374725935,8.34123886641503,0,1.56455883479612,0,2,1
41,2,animal,0,0,tools,2,a_111.jpg,111,tbd,502.689665922823,510.138255510649,7.39225236870996,0,0.871652399128834,0,2,1
42,2,tool,1,0,tools,2,t_243.jpg,243,tbd,514.687569901639,521.969491005285,7.23191949338692,0,1.16599471354675,1,2,0
43,2,animal,0,0,tools,2,a_169.jpg,169,tbd,526.73545251932,535.083818617084,8.28943103752919,0,1.16932268842174,0,2,1
44,2,animal,0,0,tools,2,a_028.jpg,28,tbd,539.649872631887,549.664464275001,9.95542701162618,0,0.754310173234444,0,2,1
45,2,tool,0,0,tools,2,t_266.jpg,266,tbd,554.213866227396,560.912635107623,6.64214085679862,0,1.07268472564556,0,2,1
46,2,animal,0,0,tools,2,a_140.jpg,140,tbd,565.461944366809,573.876862585098,8.36072028894003,0,0.815095749785542,0,2,1
47,2,animal,0,0,tools,2,a_031.jpg,31,tbd,578.442999029502,586.874653022751,8.38335077535216,0,1.23680879726908,0,2,1
48,2,tool,1,0,tools,2,t_314.jpg,314,tbd,591.440632947134,598.672601391671,7.18516134069881,0,2.00152745253126,1,2,0
49,2,animal,0,0,tools,2,a_038.jpg,38,tbd,603.438552000624,610.587011882105,7.09570721027475,0,1.82868252153548,0,2,1
50,2,animal,0,0,tools,2,a_086.jpg,86,tbd,615.136503961807,623.401572541952,8.20660953035012,0,0.838670936487688,0,2,1
51,2,animal,0,0,tools,2,a_011.jpg,11,tbd,627.950891102532,634.13299252494,6.13322703524057,0,0.908762398064027,0,2,1
52,2,tool,1,0,tools,2,t_270.jpg,270,tbd,638.698963789404,647.69713975383,8.94723348866153,1,2.836365473554,1,1,1
53,2,tool,0,0,tools,2,t_335.jpg,335,tbd,652.4632103187,659.428539851077,6.91018635552702,1,1.40242333721017,0,1,0
54,2,tool,1,0,tools,2,t_251.jpg,251,tbd,663.99451849251,671.493057852805,7.44515540023986,0,2.16750506760309,1,2,0
55,2,animal,0,0,tools,2,a_094.jpg,94,tbd,676.259012631348,686.007155880524,9.69561100745134,0,0.561945784362251,0,2,1
56,2,animal,0,0,tools,2,a_064.jpg,64,tbd,690.556481497335,697.35518552439,6.7543141398908,0,1.00250826856609,0,2,1
57,2,animal,0,0,tools,2,a_046.jpg,46,tbd,701.921129526145,710.069584275822,8.08805222137173,0,0.675721085758596,0,2,1
58,2,tool,1,0,tools,2,t_303.jpg,303,tbd,714.618867234512,723.867165720758,9.19903708067462,1,1.15574650101826,1,1,1
59,2,tool,1,0,tools,2,t_276.jpg,276,tbd,728.616443740088,737.631357083163,8.9652974563225,1,0.861364735857023,1,1,1
60,2,tool,1,0,tools,2,t_246.jpg,246,tbd,742.380679685039,749.795923772879,7.36958354694086,0,2.17232768038411,1,2,0
