trial,phase,object,toShock,seenBefore,shockedCategory,responseSide,filename,num,name,onsetFixationCross,onsetStimulus,interTrialTime,response,reactionTime,wasShocked,buttonPressed,isResponseCorrect
1,2,animal,0,0,tools,2,a_000.jpg,0,tbd,0.0260324776345442,6.74780455150176,6.60313410619346,0,1.43477542881146,0,2,1
2,2,tool,0,0,tools,2,t_205.jpg,205,tbd,11.3183030438977,18.5574936300081,7.20702546065195,1,1.90448238495856,0,1,0
3,2,tool,1,0,tools,2,t_261.jpg,261,tbd,23.1112877215342,30.3835647730125,7.21719741255447,0,1.02273845859418,1,2,0
4,2,animal,0,0,tools,2,a_026.jpg,26,tbd,35.1376724769802,42.0429392608426,6.87504880728936,1,1.51291201026925,0,1,0
5,2,animal,0,0,tools,2,a_077.jpg,77,tbd,46.5968847382069,54.169366320933,7.51343372383872,1,2.2826894313921,0,1,0
6,2,tool,1,0,tools,2,t_279.jpg,279,tbd,58.7233547764799,67.2132300467374,8.44782115642806,0,1.84027875304537,1,2,0
7,2,tool,1,0,tools,2,t_336.jpg,336,tbd,71.9506711962945,79.2397684331504,7.24851053651834,1,1.72908553436127,1,1,1
8,2,tool,0,0,tools,2,t_339.jpg,339,tbd,83.9937459196385,91.583049612138,7.54323125627373,0,1.27121008705944,0,2,1
9,2,animal,0,0,tools,2,a_144.jpg,144,tbd,96.1368873233123,106.128145753371,9.96257776551923,0,1.77852327388882,0,2,1
10,2,tool,0,0,tools,2,t_325.jpg,325,tbd,110.681926053391,120.039196310147,9.30946163985683,0,1.16288838830542,0,2,1
11,2,tool,1,0,tools,2,t_199.jpg,199,tbd,124.593093677605,130.781171657989,6.145470175981,0,0.841280401290987,1,2,0
12,2,animal,0,0,tools,2,a_005.jpg,5,tbd,135.518627881984,143.708275528239,8.14322902003397,1,2.01659899310744,0,1,0
13,2,tool,1,0,tools,2,t_340.jpg,340,tbd,148.262218119009,155.584673161103,7.28133715283981,0,1.03958269892382,1,2,0
14,2,tool,1,0,tools,2,t_275.jpg,275,tbd,160.338642308541,167.260646849475,6.87778796639273,0,1.66302486007226,1,2,0
15,2,tool,0,0,tools,2,t_346.jpg,346,tbd,172.014710292329,179.270291281988,7.20099539073937,0,0.774672236270362,0,2,1
16,2,animal,0,0,tools,2,a_149.jpg,149,tbd,183.80759009037,191.029945095933,7.17930897824188,0,1.3854181931938,0,2,1
17,2,animal,0,0,tools,2,a_098.jpg,98,tbd,195.56705146469,204.857751723618,9.2560815024171,0,1.09004229285711,0,2,1
18,2,animal,0,0,tools,2,a_145.jpg,145,tbd,209.411580775009,217.334500045624,7.87571664949474,0,0.947666478155952,0,2,1
19,2,tool,0,0,tools,2,t_239.jpg,239,tbd,221.888279062713,231.162150476481,9.22408961487037,0,0.887436403755601,0,2,1
20,2,animal,0,0,tools,2,a_065.jpg,65,tbd,235.716116160005,242.621389999987,6.86688499899857,0,0.865551528195283,0,2,1
21,2,animal,0,0,tools,2,a_134.jpg,134,tbd,247.175362098166,255.982193768981,8.76975668080413,0,0.765198433557543,0,2,1
22,2,animal,0,0,tools,2,a_029.jpg,29,tbd,260.536139887811,267.891940226569,7.31706099312929,0,0.827827909342432,0,2,1
23,2,tool,1,0,tools,2,t_181.jpg,181,tbd,272.445717960727,278.917502623353,6.42757055197862,0,1.38360797779342,1,2,0
24,2,animal,0,0,tools,2,a_099.jpg,99,tbd,283.671451243898,293.4457490718,9.72124668785304,0,1.58681107119583,0,2,1
25,2,tool,1,0,tools,2,t_201.jpg,201,tbd,297.983014203247,307.757431985181,9.73267232572342,0,1.49158392668869,1,2,0
26,2,animal,0,0,tools,2,a_039.jpg,39,tbd,312.494734898942,320.21754005286,7.68089663312164,0,0.695887454010972,0,2,1
27,2,animal,0,0,tools,2,a_020.jpg,20,tbd,324.771272884439,332.794288022061,7.98207597880403,0,1.3075112563547,0,2,1
28,2,tool,1,0,tools,2,t_213.jpg,213,tbd,337.348074095269,345.15413632832,7.76395061386626,0,1.92608597793469,1,2,0
29,2,tool,1,0,tools,2,t_337.jpg,337,tbd,349.891561441241,357.514078929994,7.57664634534103,0,1.18348680497638,1,2,0
30,2,tool,1,0,tools,2,t_195.jpg,195,tbd,362.284872111602,372.126006145479,9.81530075346871,0,1.4200342328445,1,2,0
31,2,animal,0,0,tools,2,a_010.jpg,10,tbd,376.863300399456,385.870428363147,8.95626747175943,0,1.91107664942365,0,2,1
32,2,animal,0,0,tools,2,a_095.jpg,95,tbd,390.424234642516,398.680585390674,8.20953425624968,0,3.15833045579939,0,2,1
33,2,tool,0,0,tools,2,t_287.jpg,287,tbd,403.23457737428,409.94001260696,6.66344105581925,0,3.28726724932585,0,2,1
34,2,tool,1,0,tools,2,t_334.jpg,334,tbd,414.476943214194,420.881841957274,6.34960194630584,1,1.38871757055585,1,1,1
35,2,animal,0,0,tools,2,a_156.jpg,156,tbd,425.635979168651,432.691365537704,7.00798825372244,,4.50017186566356,0,,0
36,2,animal,0,0,tools,2,a_022.jpg,22,tbd,437.195284089557,446.469107393418,9.2182710685931,0,1.82726502344076,0,2,1
37,2,tool,0,0,tools,2,t_274.jpg,274,tbd,451.023113168531,458.428954865772,7.36693857580496,0,1.65381662404161,0,2,1
38,2,animal,0,0,tools,2,a_066.jpg,66,tbd,462.96608625168,470.588745183557,7.58030750772075,1,1.5483792745249,0,1,0
39,2,tool,0,0,tools,2,t_182.jpg,182,tbd,475.142566537364,482.915361091065,7.74339491069996,0,2.01332880242262,0,2,1
40,2,animal,0,0,tools,2,a_040.jpg,40,tbd,487.452486383052,497.243698691747,9.75136177369307,0,2.05323661101329,0,2,1
41,2,animal,0,0,tools,2,a_021.jpg,21,tbd,501.780680295481,510.520807581464,8.68203312639477,1,2.42759069543172,0,1,0
42,2,animal,0,0,tools,2,a_137.jpg,137,tbd,515.058088428814,522.063614974096,6.97943907609776,0,0.627119474937899,0,2,1
43,2,tool,0,0,tools,2,t_246.jpg,246,tbd,526.617424781525,534.690307761235,8.03430999459106,1,1.81984615518422,0,1,0
44,2,animal,0,0,tools,2,a_165.jpg,165,tbd,539.244279859413,548.401353571167,9.11002772186665,1,1.94422020521415,0,1,0
45,2,animal,0,0,tools,2,a_019.jpg,19,tbd,552.955330801069,561.61220710184,8.61282297469161,1,1.07576295198851,0,1,0
46,2,tool,1,0,tools,2,t_251.jpg,251,tbd,566.149285566852,573.121470984996,6.9425851754879,1,1.05301722984086,1,1,1
47,2,animal,0,0,tools,2,a_036.jpg,36,tbd,577.858754975527,586.265386637425,8.37000428228104,0,1.77937129116754,0,2,1
48,2,tool,1,0,tools,2,t_342.jpg,342,tbd,590.819169503307,599.192368308513,8.31663724719172,1,1.41479378113718,1,1,1
49,2,tool,1,0,tools,2,t_278.jpg,278,tbd,603.946431430635,610.768343953355,6.7712188565821,1,1.6881802470507,1,1,1
50,2,tool,1,0,tools,2,t_321.jpg,321,tbd,615.505770028475,624.696235863866,9.13853580079365,0,1.74889430710664,1,2,0
51,2,animal,0,0,tools,2,a_013.jpg,13,tbd,629.450375641105,639.12454200067,9.62898497590932,0,0.908851405899441,0,2,1
52,2,animal,0,0,tools,2,a_079.jpg,79,tbd,643.678499345144,650.183625455641,6.46435887049777,0,0.776126759098588,0,2,1
53,2,animal,0,0,tools,2,a_038.jpg,38,tbd,654.737403831265,664.378241572267,9.59867804030549,0,0.907971315350551,0,2,1
54,2,tool,1,0,tools,2,t_183.jpg,183,tbd,668.915530758668,676.20444870594,7.24279319515853,1,0.673086565837821,1,1,1
55,2,animal,0,0,tools,2,a_003.jpg,3,tbd,680.958559937967,689.248302809763,8.24670505166489,0,1.26763969055992,0,2,1
56,2,tool,1,0,tools,2,t_268.jpg,268,tbd,693.785548055782,699.940426993619,6.12058458619729,1,0.984887829588843,1,1,1
57,2,tool,0,0,tools,2,t_191.jpg,191,tbd,704.677721247596,714.368734413353,9.64866412166037,1,0.989016300999083,0,1,0
58,2,tool,1,0,tools,2,t_241.jpg,241,tbd,718.922516637769,728.646718582628,9.68313369557871,1,0.69246876408215,1,1,1
59,2,animal,0,0,tools,2,a_074.jpg,74,tbd,733.400904224643,739.772544268892,6.34178335645244,0,0.901005000944224,0,2,1
60,2,tool,1,0,tools,2,t_296.jpg,296,tbd,744.309630752221,751.748698433557,7.39555445504464,1,0.801219603199115,1,1,1
