trial,phase,object,toShock,seenBefore,shockedCategory,responseSide,filename,num,name,onsetFixationCross,onsetStimulus,interTrialTime,response,reactionTime,wasShocked,buttonPressed,isResponseCorrect
1,1,tool,0,0,tools,2,t_254.jpg,254,tbd,0.0260462824301158,7.78215215116506,7.60314375579565,,2.5019871994989,0,,0
2,1,animal,0,0,tools,2,a_009.jpg,9,tbd,10.3175265633022,16.5225148549548,6.14421428547884,animal,1.12535430919343,0,2,1
3,1,animal,0,0,tools,2,a_016.jpg,16,tbd,19.0914270033795,23.3113473269602,4.16966096621346,animal,0.861727418835017,0,2,1
4,1,tool,0,0,tools,2,t_252.jpg,252,tbd,25.8635364720185,31.2509103799637,5.35144614724951,tool,0.594393820576443,0,1,1
5,1,animal,0,0,tools,2,a_107.jpg,107,tbd,33.8032505901269,41.0421380838286,7.19657842005919,animal,0.651488412028812,0,2,1
6,1,tool,0,0,tools,2,t_307.jpg,307,tbd,43.5945276868288,50.7001084038652,7.05197813801017,tool,0.711795462279042,0,1,1
7,1,animal,0,0,tools,2,a_051.jpg,51,tbd,53.2522712488415,58.1392777574702,4.82748539575095,animal,0.832062209257174,0,2,1
8,1,animal,0,0,tools,2,a_166.jpg,166,tbd,60.6916324006054,66.295857220121,5.57082976733175,animal,0.805562310769119,0,2,1
9,1,animal,0,0,tools,2,a_032.jpg,32,tbd,68.8315260648835,74.7861946662099,5.91841089652396,animal,0.621508884397372,0,2,1
10,1,tool,0,0,tools,2,t_215.jpg,215,tbd,77.3216899945776,82.7091322185895,5.33234125231953,tool,0.656797179802652,0,1,1
11,1,tool,0,0,tools,2,t_302.jpg,302,tbd,85.2447247289676,93.2008741532043,7.90557233352359,tool,0.745567654175829,0,1,1
12,1,animal,0,0,tools,2,a_168.jpg,168,tbd,95.7531854974241,102.958929756068,7.16314830713934,animal,0.621634932351299,0,2,1
13,1,animal,0,0,tools,2,a_080.jpg,80,tbd,105.494433102753,109.564087266297,4.02904900778991,animal,0.553671671641496,0,2,1
14,1,animal,0,0,tools,2,a_102.jpg,102,tbd,112.116456021671,119.305448411005,7.14741734478038,animal,0.651668663810369,0,2,1
15,1,tool,0,0,tools,2,t_233.jpg,233,tbd,121.857646857311,128.579426308031,6.6745589188217,tool,0.638947121701676,0,1,1
16,1,animal,0,0,tools,2,a_104.jpg,104,tbd,131.1317636316,136.13552486406,4.94783703170675,tool,0.964088941686896,0,1,0
17,1,animal,0,0,tools,2,a_076.jpg,76,tbd,138.687877582799,145.793313007919,7.04771056579235,animal,0.776610410732474,0,2,1
18,1,animal,0,0,tools,2,a_129.jpg,129,tbd,148.345677273036,155.334337126698,6.9448497021657,animal,0.728874799683581,0,2,1
19,1,tool,0,0,tools,2,t_224.jpg,224,tbd,157.88667124294,164.958771634843,7.03198524836332,tool,0.722811027116222,0,1,1
20,1,animal,0,0,tools,2,a_050.jpg,50,tbd,167.494443686933,173.682621415189,6.1505671509396,animal,0.857155694823177,0,2,1
21,1,animal,0,0,tools,2,a_152.jpg,152,tbd,176.23480606999,183.774107212664,7.50902332628899,animal,0.670012008814865,0,2,1
22,1,animal,0,0,tools,2,a_001.jpg,1,tbd,186.309633331372,191.863804604562,5.51999340479007,animal,0.634539292103455,0,2,1
23,1,tool,0,0,tools,2,t_208.jpg,208,tbd,194.416129419555,200.120628433463,5.67223904614719,tool,0.728986414665542,0,1,1
24,1,tool,0,0,tools,2,t_272.jpg,272,tbd,202.672820465115,207.443209202778,4.72537478468721,tool,0.639619377456711,0,1,1
25,1,tool,0,0,tools,2,t_250.jpg,250,tbd,209.995358576981,216.200100866647,6.17241214181137,tool,0.704034051491362,0,1,1
26,1,animal,0,0,tools,2,a_091.jpg,91,tbd,218.752460320773,226.007998332249,7.21240084262046,animal,0.576439203613063,0,2,1
27,1,animal,0,0,tools,2,a_056.jpg,56,tbd,228.543685458776,235.482601914641,6.88128910149911,animal,0.647110410572168,0,2,1
28,1,tool,0,0,tools,2,t_312.jpg,312,tbd,238.034647371446,243.855726951324,5.79091369997617,tool,0.576259593296982,0,1,1
29,1,tool,0,0,tools,2,t_308.jpg,308,tbd,246.391417605911,253.129915249007,6.6919728515106,tool,0.620520706925618,0,1,1
30,1,animal,0,0,tools,2,a_106.jpg,106,tbd,255.665558435153,260.385907417997,4.67935219928825,animal,0.636571775270113,0,2,1
31,1,tool,0,0,tools,2,t_258.jpg,258,tbd,262.921448290409,268.192036684183,5.23480594921112,tool,1.22572440266458,0,1,1
32,1,tool,0,0,tools,2,t_301.jpg,301,tbd,270.727667682486,278.667317974786,7.90444810616703,tool,0.646765943644368,0,1,1
33,1,tool,0,0,tools,2,t_203.jpg,203,tbd,281.2195125723,286.490096796549,5.22172958647395,tool,0.680228307745892,0,1,1
34,1,animal,0,0,tools,2,a_018.jpg,18,tbd,289.042449515287,293.262398384079,4.17976478059647,animal,0.672135580070972,0,2,1
35,1,tool,0,0,tools,2,t_311.jpg,311,tbd,295.797928672312,300.434874642643,4.5904320978146,tool,0.530840634593915,0,1,1
36,1,animal,0,0,tools,2,a_133.jpg,133,tbd,302.987065070632,308.84166250137,5.81124863847856,animal,0.723467566968338,0,2,1
37,1,tool,0,0,tools,2,t_329.jpg,329,tbd,311.393841703714,315.613798911556,4.16505161840548,tool,0.649449834940242,0,1,1
38,1,animal,0,0,tools,2,a_120.jpg,120,tbd,318.182617726763,324.887939099332,6.66386432570788,animal,0.704593088600177,0,2,1
39,1,tool,0,0,tools,2,t_227.jpg,227,tbd,327.44014235663,334.162038233322,6.67735491082427,tool,0.856777550960942,0,1,1
40,1,animal,0,0,tools,2,a_085.jpg,85,tbd,336.714253357729,342.018413485458,5.27768230967372,animal,0.722652585158812,0,2,1
41,1,tool,0,0,tools,2,t_271.jpg,271,tbd,344.553926454125,352.276541092815,7.67310316651946,tool,0.645851855427736,0,1,1
42,1,animal,0,0,tools,2,a_075.jpg,75,tbd,354.828884189572,360.166350163841,5.29709066722551,animal,0.890339662934366,0,2,1
43,1,animal,0,0,tools,2,a_143.jpg,143,tbd,362.718564967516,367.388854630846,4.632769608525,animal,0.728996357379856,0,2,1
44,1,animal,0,0,tools,2,a_069.jpg,69,tbd,369.941069434521,376.72974955849,6.73247136898152,animal,0.7414032607021,0,2,1
45,1,tool,0,0,tools,2,t_316.jpg,316,tbd,379.281946401133,384.619437071821,5.28479698768636,tool,0.771982558496347,0,1,1
46,1,tool,0,0,tools,2,t_351.jpg,351,tbd,387.154935607516,394.994435187516,7.81651505925177,tool,0.722287591338045,0,1,1
47,1,tool,0,0,tools,2,t_204.jpg,204,tbd,397.529980550186,402.383592369315,4.80392932001642,tool,1.05935681924802,0,1,1
48,1,animal,0,0,tools,2,a_054.jpg,54,tbd,404.93593642827,410.256720132226,5.28176413594191,animal,0.636480366449177,0,2,1
49,1,tool,0,0,tools,2,t_353.jpg,353,tbd,412.792292115711,418.997179376561,6.16898400382467,tool,0.87829871563099,0,1,1
50,1,tool,0,0,tools,2,t_242.jpg,242,tbd,421.549356975242,428.387912959617,6.78214337771249,tool,1.29887743931386,0,1,1
51,1,tool,0,0,tools,2,t_218.jpg,218,tbd,430.956924535181,436.728144932755,5.74150204205142,tool,0.77189499846736,0,1,1
52,1,animal,0,0,tools,2,a_159.jpg,159,tbd,439.263678107582,446.469150705623,7.17574351467717,animal,0.888213846549661,0,2,1
53,1,tool,0,0,tools,2,t_255.jpg,255,tbd,449.021518178066,455.593223266907,6.52407602812536,tool,0.64838404015336,0,1,1
54,1,tool,0,0,tools,2,t_277.jpg,277,tbd,458.145553213624,464.083512923823,5.89550599168481,tool,0.634412923416676,0,1,1
55,1,animal,0,0,tools,2,a_096.jpg,96,tbd,466.635727086032,472.156758331492,5.4931899918807,animal,0.573421429568953,0,2,1
56,1,animal,0,0,tools,2,a_081.jpg,81,tbd,474.692246283008,479.412404429891,4.67228596423021,animal,0.702965049376871,0,2,1
57,1,animal,0,0,tools,2,a_127.jpg,127,tbd,481.964657316121,487.085543161861,5.06887349834966,animal,0.949097253474974,0,2,1
58,1,tool,0,0,tools,2,t_323.jpg,323,tbd,489.637566808842,496.042564658329,6.36724363138096,tool,0.640338780919592,0,1,1
59,1,tool,0,0,tools,2,t_300.jpg,300,tbd,498.594825647514,503.648620220139,5.01520432128682,tool,0.853566054360726,0,1,1
60,1,tool,0,0,tools,2,t_186.jpg,186,tbd,506.20096363763,511.271561076066,5.03464197616943,tool,1.05282541839279,0,1,1
