trial,phase,object,toShock,seenBefore,shockedCategory,responseSide,filename,num,name,onsetFixationCross,onsetStimulus,interTrialTime,response,reactionTime,wasShocked,buttonPressed,isResponseCorrect
1,2,tool,0,0,animals,2,t_339.jpg,339,tbd,0.0263568315531302,9.46713132340847,9.33006283254611,0,1.10370745712044,0,2,1
2,2,tool,0,0,animals,2,t_267.jpg,267,tbd,14.0376381403685,22.8783264179165,8.81443584436739,0,0.722137625457435,0,2,1
3,2,animal,1,0,animals,2,a_087.jpg,87,tbd,27.4154906215308,35.1882758311594,7.73427618277868,1,0.728750275609855,1,1,1
4,2,tool,0,0,animals,2,t_227.jpg,227,tbd,39.9424807030373,47.1816625395304,7.18852296552118,0,1.59799864594152,0,2,1
5,2,animal,1,0,animals,2,a_060.jpg,60,tbd,51.7355176148203,59.5416313253327,7.75596028471362,1,1.61063378879226,1,1,1
6,2,animal,0,0,animals,2,a_110.jpg,110,tbd,64.2957941805653,72.2855985690276,7.95237258279133,1,1.02818237735391,0,1,0
7,2,animal,1,0,animals,2,a_020.jpg,20,tbd,76.8227942049416,84.0619587215961,7.18899219083394,1,2.45844308582491,1,1,1
8,2,tool,0,0,animals,2,t_212.jpg,212,tbd,88.8160429960808,96.355407781386,7.49013720018199,0,1.40753110011156,0,2,1
9,2,animal,0,0,animals,2,a_079.jpg,79,tbd,100.892629717795,110.833796792654,9.88855627926872,1,1.05687942515488,0,1,0
10,2,animal,1,0,animals,2,a_049.jpg,49,tbd,115.371181022364,122.443546193836,7.03342071693651,1,2.52070341454237,1,1,1
11,2,animal,0,0,animals,2,a_129.jpg,129,tbd,127.180881222375,135.771026170179,8.54097467421748,1,1.477764327773,0,1,0
12,2,tool,0,0,animals,2,t_327.jpg,327,tbd,140.325000239173,146.830303637839,6.49134588864187,0,1.55001307144266,0,2,1
13,2,animal,1,0,animals,2,a_001.jpg,1,tbd,151.38415999608,159.140356328636,7.71666219484091,1,0.980513371012421,1,1,1
14,2,animal,1,0,animals,2,a_177.jpg,177,tbd,163.894420717381,172.267850545734,8.32947074954743,0,0.877663359529834,1,2,0
15,2,animal,1,0,animals,2,a_005.jpg,5,tbd,177.021881577753,184.827984703919,7.76013029270167,1,2.03214380928148,1,1,1
16,2,tool,0,0,animals,2,t_313.jpg,313,tbd,189.582202726046,195.987319840227,6.3611289700915,0,1.13928497109555,0,2,1
17,2,tool,0,0,animals,2,t_191.jpg,191,tbd,200.524558134262,208.380684802579,7.81443256778194,0,0.693490612744426,0,2,1
18,2,animal,1,0,animals,2,a_171.jpg,171,tbd,212.934721415434,222.642404880634,9.66379041207506,1,0.996466866603441,1,1,1
19,2,tool,0,0,animals,2,t_304.jpg,304,tbd,227.396625468661,234.118694021865,6.67616816169927,0,0.928706206243078,0,2,1
20,2,tool,0,0,animals,2,t_286.jpg,286,tbd,238.672541720186,248.497336800839,9.78946916338405,0,1.37480013365257,0,2,1
21,2,animal,1,0,animals,2,a_058.jpg,58,tbd,253.051065184719,260.15677393175,7.07113546930678,1,0.993856702810263,1,1,1
22,2,tool,0,0,animals,2,t_288.jpg,288,tbd,264.910827736149,271.04906089453,6.08901598248822,0,0.930091793316024,0,2,1
23,2,tool,0,0,animals,2,t_232.jpg,232,tbd,275.602899612195,285.560995225401,9.92861586218856,0,0.758813024743176,0,2,1
24,2,tool,0,0,animals,2,t_276.jpg,276,tbd,290.114835226017,297.437243376347,7.29377361695571,0,0.787124545771803,0,2,1
25,2,animal,1,0,animals,2,a_155.jpg,155,tbd,301.974611569171,309.463825479438,7.45589422062118,1,0.847114692707692,1,1,1
26,2,tool,0,0,animals,2,t_352.jpg,352,tbd,314.218008220411,320.473004673052,6.21037050104147,0,0.763423629872705,0,2,1
27,2,tool,0,0,animals,2,t_199.jpg,199,tbd,325.026930310647,333.767307857464,8.7044919827285,0,1.0647920254014,0,2,1
28,2,tool,0,0,animals,2,t_325.jpg,325,tbd,338.321149141031,345.677111591622,7.32912907114611,0,0.896585282980595,0,2,1
29,2,animal,0,0,animals,2,a_022.jpg,22,tbd,350.230957365518,356.352586251415,6.07669222022896,1,0.907517308388378,0,1,0
30,2,animal,1,0,animals,2,a_174.jpg,174,tbd,360.889726078961,370.213939020601,9.27401248631061,1,1.02788922305172,1,1,1
31,2,tool,0,0,animals,2,t_205.jpg,205,tbd,374.951337234476,382.557248367028,7.55500168970366,0,0.80812837794565,0,2,1
32,2,animal,0,0,animals,2,a_160.jpg,160,tbd,387.094619125752,395.000807824749,7.87339894596993,1,1.05318484703457,0,1,0
33,2,animal,0,0,animals,2,a_018.jpg,18,tbd,399.554868172198,407.077593724604,7.48527501362764,1,0.792937596719639,0,1,0
34,2,animal,0,0,animals,2,a_119.jpg,119,tbd,411.61476498445,420.538485208761,8.88065758188063,1,1.41369824553294,0,1,0
35,2,tool,0,0,animals,2,t_201.jpg,201,tbd,425.09254266957,431.764709560967,6.63673046086616,0,0.721973086991966,0,2,1
36,2,tool,0,0,animals,2,t_333.jpg,333,tbd,436.318428643452,445.759218530719,9.40417511457177,0,1.29210399931162,0,2,1
37,2,animal,1,0,animals,2,a_179.jpg,179,tbd,450.296576139195,458.169579065607,7.83957399185969,1,1.15939522790359,1,1,1
38,2,animal,1,0,animals,2,a_011.jpg,11,tbd,462.923645378778,471.880677746348,8.9205009456724,1,1.06295099072759,1,1,1
39,2,animal,1,0,animals,2,a_168.jpg,168,tbd,476.634901862491,482.939885613917,6.27033727353158,1,1.45519240874728,1,1,1
40,2,tool,0,0,animals,2,t_328.jpg,328,tbd,487.677323920011,493.965569330575,6.23791723596295,0,0.745051450921892,0,2,1
41,2,animal,0,0,animals,2,a_105.jpg,105,tbd,498.519596962773,508.194069637841,9.62657408069445,1,1.00728663379959,0,1,0
42,2,tool,0,0,animals,2,t_204.jpg,204,tbd,512.74795486248,519.586761692398,6.7984406918219,0,0.825081613099428,0,2,1
43,2,animal,1,0,animals,2,a_121.jpg,121,tbd,524.140610032195,531.129463112497,6.94361384150538,1,0.910915845567615,1,1,1
44,2,animal,0,0,animals,2,a_000.jpg,0,tbd,535.866942152285,544.373805619357,8.45930354410003,1,1.00515019965951,0,1,0
45,2,tool,0,0,animals,2,t_283.jpg,283,tbd,548.911006066337,557.184161407326,8.22211043711459,0,1.18944899638063,0,2,1
46,2,animal,1,0,animals,2,a_077.jpg,77,tbd,561.721545957774,569.62786872515,7.88060927105835,1,0.730316438034606,1,1,1
47,2,animal,1,0,animals,2,a_041.jpg,41,tbd,574.398644833524,582.154888956004,7.71698241204382,1,0.679016680383938,1,1,1
48,2,tool,0,0,animals,2,t_213.jpg,213,tbd,586.908924478352,593.213974943229,6.25788616138922,0,1.66638538638654,0,2,1
49,2,tool,0,0,animals,2,t_224.jpg,224,tbd,597.767872676639,604.856710297381,7.04347759294046,0,1.08313790385728,0,2,1
50,2,tool,0,0,animals,2,t_340.jpg,340,tbd,609.410787323192,618.801660473979,9.34793112475699,0,0.89784289569161,0,2,1
51,2,animal,1,0,animals,2,a_092.jpg,92,tbd,623.355526454353,630.461292934178,7.07298263906854,1,0.69874814591185,1,1,1
52,2,animal,1,0,animals,2,a_072.jpg,72,tbd,635.215333267592,642.921482644142,7.6548280322248,1,1.3361214063907,1,1,1
53,2,animal,0,0,animals,2,a_096.jpg,96,tbd,647.675588408056,655.631927661353,7.92753798842252,1,0.877311189481588,0,1,0
54,2,tool,0,0,animals,2,t_356.jpg,356,tbd,660.169186161866,666.290558778303,6.07805929895009,0,0.831097049565869,0,2,1
55,2,tool,0,0,animals,2,t_292.jpg,292,tbd,670.844622333129,678.350480608099,7.45967626918014,0,0.956852226593583,0,2,1
56,2,tool,0,0,animals,2,t_225.jpg,225,tbd,682.887858102315,691.895133396657,8.96691621761095,0,1.08783286301423,0,2,1
57,2,animal,1,0,animals,2,a_163.jpg,163,tbd,696.432321655602,703.204369809885,6.73059557073539,1,1.1751184337927,1,1,1
58,2,tool,0,0,animals,2,t_329.jpg,329,tbd,707.958498025441,714.830664788543,6.83323045065522,0,0.867387884292839,0,2,1
59,2,tool,0,0,animals,2,t_351.jpg,351,tbd,719.367845670521,726.173248626184,6.75819765585365,0,0.664299628810113,0,2,1
60,2,tool,0,0,animals,2,t_320.jpg,320,tbd,730.72720088501,740.635218751387,9.86547306404465,0,0.809037990199613,0,2,1
