trial,phase,object,toShock,seenBefore,shockedCategory,responseSide,filename,num,name,onsetFixationCross,onsetStimulus,interTrialTime,response,reactionTime,wasShocked,buttonPressed,isResponseCorrect
1,2,animal,0,0,tools,2,a_015.jpg,15,tbd,0.0259974411401345,9.06638832813951,8.93992373153034,0,0.889850173487503,0,2,1
2,2,tool,1,0,tools,2,t_315.jpg,315,tbd,13.6202077770395,20.9260446534336,7.25107081909956,1,1.21420793233847,1,1,1
3,2,animal,0,0,tools,2,a_114.jpg,114,tbd,25.663561299616,34.4705730308433,8.75827272837459,0,1.45588387895987,0,2,1
4,2,animal,0,0,tools,2,a_092.jpg,92,tbd,38.9910994735765,47.0306731260389,7.98010224621136,0,0.751598336952156,0,2,1
5,2,animal,0,0,tools,2,a_117.jpg,117,tbd,51.5680244008981,60.958904987152,9.35964969641219,0,1.33461628019177,0,2,1
6,2,tool,0,0,tools,2,t_259.jpg,259,tbd,65.479315002829,75.3539779096191,9.82091674126336,0,1.6411254185914,0,2,1
7,2,animal,0,0,tools,2,a_176.jpg,176,tbd,79.8744270550505,89.3987170103792,9.48538202465699,0,0.685218236934816,0,2,1
8,2,tool,1,0,tools,2,t_357.jpg,357,tbd,93.9359441605266,100.224115235813,6.23200195965111,0,1.78236554955402,1,2,0
9,2,tool,1,0,tools,2,t_354.jpg,354,tbd,104.978299874369,112.484298914727,7.46471472962131,1,1.962684437809,1,1,1
10,2,animal,0,0,tools,2,a_061.jpg,61,tbd,117.238273471407,127.012645214336,9.71595903790969,0,1.07888986516991,0,2,1
11,2,tool,0,0,tools,2,t_233.jpg,233,tbd,131.566573392634,139.923340851561,8.30545812351658,1,2.13180131132685,0,1,0
12,2,animal,0,0,tools,2,a_041.jpg,41,tbd,144.477160941931,150.832211823441,6.30013767466127,0,1.27831561998937,0,2,1
13,2,tool,0,0,tools,2,t_205.jpg,205,tbd,155.386072647245,164.693340004818,9.25016358770494,1,2.03776160681446,0,1,0
14,2,tool,1,0,tools,2,t_194.jpg,194,tbd,169.230702184692,178.938284568861,9.65326667154945,1,1.00754413518735,1,1,1
15,2,tool,1,0,tools,2,t_240.jpg,240,tbd,183.692451566954,192.933128421897,9.20510650406398,1,1.12805351478346,1,1,1
16,2,animal,0,0,tools,2,a_090.jpg,90,tbd,197.670571619607,207.495110594125,9.77844823352527,0,0.886656928949378,0,2,1
17,2,animal,0,0,tools,2,a_120.jpg,120,tbd,212.03229252054,220.15529722381,8.07530153993592,0,0.520031017096699,0,2,1
18,2,animal,0,0,tools,2,a_013.jpg,13,tbd,224.709304303087,231.431263343857,6.66137142019382,0,0.882546059601736,0,2,1
19,2,tool,1,0,tools,2,t_344.jpg,344,tbd,235.985165221828,244.758702731226,8.7373337037417,1,1.83165075799479,1,1,1
20,2,tool,1,0,tools,2,t_340.jpg,340,tbd,249.512863314605,257.018665423249,7.46041291937755,1,0.886086019419963,1,1,1
21,2,tool,0,0,tools,2,t_328.jpg,328,tbd,261.756102847718,269.245513117417,7.44156891097116,0,2.39988695545435,0,2,1
22,2,animal,0,0,tools,2,a_006.jpg,6,tbd,273.799311718496,280.004267598095,6.16591522298889,0,1.80755324408165,0,2,1
23,2,animal,0,0,tools,2,a_081.jpg,81,tbd,284.541471976008,293.698812717908,9.11466942307069,0,1.61952002099497,0,2,1
24,2,tool,1,0,tools,2,t_304.jpg,304,tbd,298.235999134624,305.007895118757,6.73329562789557,0,1.78793576629505,1,2,0
25,2,tool,1,0,tools,2,t_183.jpg,183,tbd,309.745350183686,316.317211977394,6.52452061580348,0,1.26104592745833,1,2,0
26,2,animal,0,0,tools,2,a_146.jpg,146,tbd,321.071218286907,329.661299150788,8.54980625900305,0,1.05043002512684,0,2,1
27,2,tool,1,0,tools,2,t_262.jpg,262,tbd,334.215307192275,341.654386013712,7.38927789562939,1,1.36571513349736,1,1,1
28,2,animal,0,0,tools,2,a_168.jpg,168,tbd,346.391912602699,352.763647192633,6.32744501827351,0,0.712051626291213,0,2,1
29,2,tool,1,0,tools,2,t_226.jpg,226,tbd,357.317487810087,366.441277353591,9.06580194827408,0,1.40155061148289,1,2,0
30,2,tool,0,0,tools,2,t_185.jpg,185,tbd,371.162045823477,377.900688893405,6.68084450845463,,4.50468349356197,0,,0
31,2,animal,0,0,tools,2,a_001.jpg,1,tbd,382.421154396357,389.560333800508,7.10515865904732,0,0.952702180906272,0,2,1
32,2,tool,1,0,tools,2,t_190.jpg,190,tbd,394.080833622178,404.122187357721,9.98740687705505,1,1.42964513357401,1,1,1
33,2,tool,0,0,tools,2,t_331.jpg,331,tbd,408.876247230095,416.231944073286,7.31015767591886,0,1.30637742703948,0,2,1
34,2,tool,1,0,tools,2,t_230.jpg,230,tbd,420.785815160632,430.043168026341,9.20514846521712,0,1.34271742226701,1,2,0
35,2,animal,0,0,tools,2,a_029.jpg,29,tbd,434.780715142413,444.388415300729,9.55761388221228,0,1.50769359801961,0,2,1
36,2,tool,1,0,tools,2,t_306.jpg,306,tbd,448.925596906409,455.063775615205,6.08584109170548,0,1.91614248173028,1,2,0
37,2,animal,0,0,tools,2,a_098.jpg,98,tbd,459.817664856189,468.674880382876,8.82592681250891,0,0.996567276908536,0,2,1
38,2,tool,1,0,tools,2,t_213.jpg,213,tbd,473.228703359868,482.769701399531,9.49587423828654,0,1.60735900654618,1,2,0
39,2,animal,0,0,tools,2,a_153.jpg,153,tbd,487.507046772855,495.630326346609,8.08344688027716,0,1.72926037903926,0,2,1
40,2,animal,0,0,tools,2,a_124.jpg,124,tbd,500.167395694798,507.673380943521,7.46540768476146,0,1.73117196375642,0,2,1
41,2,animal,0,0,tools,2,a_155.jpg,155,tbd,512.210285433564,518.898988673509,6.63974876585315,0,0.629234463594912,0,2,1
42,2,tool,0,0,tools,2,t_325.jpg,325,tbd,523.436365607224,530.408430490772,6.9259116738743,0,1.04517509156904,0,2,1
43,2,animal,0,0,tools,2,a_012.jpg,12,tbd,534.945751937212,542.301612676341,7.31928519951297,0,1.05583185562864,0,2,1
44,2,tool,1,0,tools,2,t_281.jpg,281,tbd,546.855435653333,552.943619365606,6.05607426320174,1,2.59925561932141,1,1,1
45,2,tool,0,0,tools,2,t_303.jpg,303,tbd,557.697593601548,567.188594720274,9.43223186719463,0,1.60986459376363,0,2,1
46,2,animal,0,0,tools,2,a_083.jpg,83,tbd,571.742450733042,579.348414107591,7.56204866302945,0,1.31751689831435,0,2,1
47,2,animal,0,0,tools,2,a_003.jpg,3,tbd,583.902361209297,593.076171087443,9.12445227010704,0,2.28631444737766,0,2,1
48,2,animal,0,0,tools,2,a_127.jpg,127,tbd,597.613516268324,604.452363582741,6.81053193207766,0,1.66564566214583,0,2,1
49,2,tool,1,0,tools,2,t_197.jpg,197,tbd,609.006158976463,617.929965647252,8.87498526458664,0,1.14735442644087,1,2,0
50,2,animal,0,0,tools,2,a_046.jpg,46,tbd,622.667324170739,629.389144653689,6.66335413191576,0,1.31986532504015,0,2,1
51,2,animal,0,0,tools,2,a_033.jpg,33,tbd,633.926505871355,641.015358638278,7.04401006417116,0,1.02723089188294,0,2,1
52,2,animal,0,0,tools,2,a_059.jpg,59,tbd,645.552538319545,651.874361304233,6.27896028785247,0,0.910514211831469,0,2,1
53,2,tool,1,0,tools,2,t_203.jpg,203,tbd,656.411402427681,663.316981047697,6.85613916982023,0,0.942382189321506,1,2,0
54,2,tool,1,0,tools,2,t_211.jpg,211,tbd,668.071033222413,676.878051047619,8.75189392837292,0,1.87788224192445,1,2,0
55,2,tool,0,0,tools,2,t_209.jpg,209,tbd,681.632096807622,689.505045702881,7.82745403711812,1,2.22935018503085,0,1,0
56,2,animal,0,0,tools,2,a_039.jpg,39,tbd,694.058897546083,701.464815825197,7.36480513670853,0,0.661058179561223,0,2,1
57,2,tool,0,0,tools,2,t_277.jpg,277,tbd,706.018694610199,712.17352399164,6.11455241073727,1,2.66953618607477,0,1,0
58,2,animal,0,0,tools,2,a_052.jpg,52,tbd,716.694053000259,724.216712335336,7.46589521608469,0,1.09911417488183,0,2,1
59,2,animal,0,0,tools,2,a_075.jpg,75,tbd,728.77055519794,737.777809918527,8.94456877522011,0,1.27559097029734,0,2,1
60,2,tool,1,0,tools,2,t_349.jpg,349,tbd,742.331497865793,750.688324981558,8.3134089480021,1,1.86761453025792,1,1,1
