trial,phase,object,toShock,seenBefore,shockedCategory,responseSide,filename,num,name,onsetFixationCross,onsetStimulus,interTrialTime,response,reactionTime,wasShocked,buttonPressed,isResponseCorrect
1,3,tool,0,0,tools,2,t_321.jpg,321,tbd,0.0147374206308086,5.80267720680195,5.71820587102925,tool,1.07963679316345,0,1,1
2,3,animal,0,0,tools,2,a_128.jpg,128,tbd,8.38823468891633,15.6273654026004,7.19778965012976,animal,0.606359293677997,0,2,1
3,3,animal,0,0,tools,2,a_084.jpg,84,tbd,18.1629200301577,25.5519810477526,7.34667021992911,animal,0.477202786346879,0,2,1
4,3,tool,0,0,tools,2,t_304.jpg,304,tbd,28.1044003327534,34.6427598029222,6.49849648831064,tool,0.726810685707278,0,1,1
5,3,tool,0,0,tools,2,t_305.jpg,305,tbd,37.1784590827397,41.6653361398648,4.44891788361858,tool,0.724466421025227,0,1,1
6,3,tool,0,0,tools,2,t_337.jpg,337,tbd,44.2009212374105,49.7384548105269,5.49892484892538,tool,0.643679256138512,0,1,1
7,3,animal,0,0,tools,2,a_054.jpg,54,tbd,52.2908660771095,57.9619014986315,5.61726148284504,animal,0.537682826579839,0,2,1
8,3,tool,0,0,tools,2,t_350.jpg,350,tbd,60.497570308461,67.136194001539,6.59864767014951,tool,0.739801485053704,0,1,1
9,3,animal,0,0,tools,2,a_091.jpg,91,tbd,69.6884596536511,73.7583096964054,4.02824393736439,animal,0.684966411082314,0,2,1
10,3,tool,0,0,tools,2,t_258.jpg,258,tbd,76.3104816933956,81.0976193170318,4.74494448212341,tool,0.761989730566256,0,1,1
11,3,animal,0,0,tools,2,a_179.jpg,179,tbd,83.6498987608229,90.8555804835128,7.16799488491095,animal,0.750439359826487,0,2,1
12,3,tool,0,0,tools,2,t_286.jpg,286,tbd,93.4079141318093,97.5277968576352,4.09542478417624,tool,0.860535446133326,0,1,1
13,3,tool,0,0,tools,2,t_200.jpg,200,tbd,100.080010871136,105.217367012699,5.10016226932909,tool,0.605275845039614,0,1,1
14,3,animal,0,0,tools,2,a_142.jpg,142,tbd,107.76962785376,113.273972553362,5.46037604905754,animal,0.686041841302085,0,2,1
15,3,animal,0,0,tools,2,a_160.jpg,160,tbd,115.809577536584,121.097079517133,5.25082728703177,animal,0.647280488024535,0,2,1
16,3,tool,0,0,tools,2,t_302.jpg,302,tbd,123.632648257106,129.420544102346,5.75861564669518,tool,0.614176609740298,0,1,1
17,3,tool,0,0,tools,2,t_205.jpg,205,tbd,131.97279981162,137.543747736165,5.52757594576725,tool,0.840331277966925,0,1,1
18,3,animal,0,0,tools,2,a_141.jpg,141,tbd,140.079448940403,147.835474460783,7.72429474509418,animal,0.49904720209588,0,2,1
19,3,tool,0,0,tools,2,t_229.jpg,229,tbd,150.387912348513,155.625496148999,5.19958814492244,tool,0.685363483140918,0,1,1
20,3,animal,0,0,tools,2,a_092.jpg,92,tbd,158.160857693052,165.366658409064,7.16009265997539,animal,0.520640160257244,0,2,1
21,3,animal,0,0,tools,2,a_098.jpg,98,tbd,167.918937532119,172.622443697641,4.65997784471696,animal,0.628188314064573,0,2,1
22,3,tool,0,0,tools,2,t_323.jpg,323,tbd,175.158162542399,180.862690254372,5.667767345639,tool,0.62730789176976,0,1,1
23,3,tool,0,0,tools,2,t_239.jpg,239,tbd,183.41489368356,190.103428500493,6.66040282325581,tool,0.750950934894263,0,1,1
24,3,animal,0,0,tools,2,a_099.jpg,99,tbd,192.655845861074,196.859136170784,4.17169115889928,animal,0.662542744817983,0,2,1
25,3,animal,0,0,tools,2,a_048.jpg,48,tbd,199.394661932037,206.9340407035,7.50596941180141,animal,0.674085417876086,0,2,1
26,3,tool,0,0,tools,2,t_313.jpg,313,tbd,209.48629769572,217.22564298227,7.71133916255642,tool,0.906933540700265,0,1,1
27,3,animal,0,0,tools,2,a_065.jpg,65,tbd,219.761384920071,225.816160337013,6.01883136868637,animal,0.766793083676021,0,2,1
28,3,tool,0,0,tools,2,t_324.jpg,324,tbd,228.368429517229,235.974333574613,7.56019060186763,tool,0.73301822417443,0,1,1
29,3,animal,0,0,tools,2,a_134.jpg,134,tbd,238.526753821824,246.065933415784,7.48748671790472,animal,0.58578563681067,0,2,1
30,3,tool,0,0,tools,2,t_228.jpg,228,tbd,248.60168176832,256.474602993457,7.83369841357463,tool,1.22772157799045,0,1,1
31,3,tool,0,0,tools,2,t_182.jpg,182,tbd,259.010197071631,266.265866894988,7.212222812072,tool,0.583845821131945,0,1,1
32,3,animal,0,0,tools,2,a_154.jpg,154,tbd,268.818238069481,275.540226046986,6.69005687699024,animal,0.487877225105876,0,2,1
33,3,animal,0,0,tools,2,a_017.jpg,17,tbd,278.075831992418,283.713582640146,5.59349430244472,animal,0.60991049063523,0,2,1
34,3,animal,0,0,tools,2,a_122.jpg,122,tbd,286.265847330048,294.088794566934,7.77713828274456,animal,0.562061703885774,0,2,1
35,3,tool,0,0,tools,2,t_188.jpg,188,tbd,296.641011146328,301.895190185413,5.19991831782704,tool,0.623086355069063,0,1,1
36,3,tool,0,0,tools,2,t_317.jpg,317,tbd,304.43073903971,310.702364231911,6.22668278661195,tool,0.548225121810447,0,1,1
37,3,animal,0,0,tools,2,a_012.jpg,12,tbd,313.254589471197,317.341165933869,4.04638351790874,animal,0.609793421732775,0,2,1
38,3,animal,0,0,tools,2,a_088.jpg,88,tbd,319.893404964833,324.813764754455,4.87234356799997,animal,0.584552404125134,0,2,1
39,3,animal,0,0,tools,2,a_081.jpg,81,tbd,327.366200397029,335.155573876336,7.74511889610604,animal,0.65016423186853,0,2,1
40,3,tool,0,0,tools,2,t_332.jpg,332,tbd,337.707982897762,341.877785728071,4.14105320567188,tool,0.708176844519585,0,1,1
41,3,tool,0,0,tools,2,t_225.jpg,225,tbd,344.430165241719,349.40062346544,4.92535364377112,tool,0.59474509633128,0,1,1
42,3,tool,0,0,tools,2,t_296.jpg,296,tbd,351.952954547844,357.474001291371,5.47934902887379,tool,0.632728342327937,0,1,1
43,3,animal,0,0,tools,2,a_124.jpg,124,tbd,360.026279131479,367.765804992801,7.70883375498976,animal,0.590357418009717,0,2,1
44,3,tool,0,0,tools,2,t_261.jpg,261,tbd,370.318037288295,375.355150696309,4.98932331640083,tool,0.679350631862235,0,1,1
45,3,animal,0,0,tools,2,a_003.jpg,3,tbd,377.907550737106,385.230083261413,7.2867549614048,animal,0.855867443918669,0,2,1
46,3,animal,0,0,tools,2,a_102.jpg,102,tbd,387.782329669322,394.287547414274,6.46004664673383,animal,0.626792788598323,0,2,1
47,3,animal,0,0,tools,2,a_001.jpg,1,tbd,396.83975405083,404.012164470668,7.11897466712828,animal,0.561595031959314,0,2,1
48,3,tool,0,0,tools,2,t_264.jpg,264,tbd,406.56432941145,411.868577376857,5.26011070790402,tool,0.69353040222768,0,1,1
49,3,tool,0,0,tools,2,t_270.jpg,270,tbd,414.404122382312,419.191256798581,4.7388672779937,tool,0.621184707059001,0,1,1
50,3,tool,0,0,tools,2,t_218.jpg,218,tbd,421.726811426139,428.315432906133,6.55269949630592,tool,0.586393432894511,0,1,1
51,3,animal,0,0,tools,2,a_043.jpg,43,tbd,430.850910236141,437.15590102779,6.26514108534074,animal,0.656321735407801,0,2,1
52,3,animal,0,0,tools,2,a_096.jpg,96,tbd,439.708165076219,444.395151055534,4.65044351369632,animal,0.664387622427512,0,2,1
53,3,animal,0,0,tools,2,a_118.jpg,118,tbd,446.947443008057,453.802754825088,6.81816305931147,animal,0.662153691177082,0,2,1
54,3,tool,0,0,tools,2,t_281.jpg,281,tbd,456.355168657565,461.42571181237,5.01874612927719,tool,0.690561342416004,0,1,1
55,3,tool,0,0,tools,2,t_301.jpg,301,tbd,463.978092608964,468.982043123137,4.96924590623914,tool,0.758570677136959,0,1,1
56,3,tool,0,0,tools,2,t_256.jpg,256,tbd,471.517544187663,476.471469074972,4.91820449113692,tool,0.589466411403009,0,1,1
57,3,animal,0,0,tools,2,a_161.jpg,161,tbd,479.007057059148,485.578782770237,6.5225428993966,animal,0.672089473271171,0,2,1
58,3,animal,0,0,tools,2,a_027.jpg,27,tbd,488.097854417047,495.203488093376,7.07795115852821,animal,0.680278843928136,0,2,1
59,3,tool,0,0,tools,2,t_272.jpg,272,tbd,497.755708521611,503.093129323697,5.30392484793553,tool,0.756987199953073,0,1,1
60,3,animal,0,0,tools,2,a_131.jpg,131,tbd,505.628882166547,511.917149745645,6.25034896452532,animal,0.735340358023223,0,2,1
