trial,phase,object,toShock,seenBefore,shockedCategory,responseSide,filename,num,name,onsetFixationCross,onsetStimulus,interTrialTime,response,reactionTime,wasShocked,buttonPressed,isResponseCorrect
1,3,animal,0,0,tools,1,a_154.jpg,154,tbd,0.0143530441798703,4.91834556980098,4.82670141111791,animal,1.52464032015973,0,1,1
2,3,tool,0,0,tools,1,t_197.jpg,197,tbd,7.48725697704913,11.6906736893936,4.16568686513772,tool,1.00460713063262,0,2,1
3,3,tool,0,0,tools,1,t_330.jpg,330,tbd,14.2261636791334,21.6487297350482,7.39121602832356,tool,1.02086480298453,0,2,1
4,3,tool,0,0,tools,1,t_282.jpg,282,tbd,24.184249873759,28.370711959343,4.13898515554594,tool,0.980113336670229,0,2,1
5,3,animal,0,0,tools,1,a_117.jpg,117,tbd,30.9230006992475,38.4621733537458,7.50137540144273,animal,0.874994779048166,0,1,1
6,3,animal,0,0,tools,1,a_131.jpg,131,tbd,41.0145252781963,45.4848312678025,4.42424670119692,animal,1.321583791801,0,1,1
7,3,tool,0,0,tools,1,t_239.jpg,239,tbd,48.0368727219966,55.7261522930858,7.64015922795142,tool,0.775628901717937,0,2,1
8,3,tool,0,0,tools,1,t_277.jpg,277,tbd,58.2785183298206,62.6318982700423,4.31073245735359,tool,0.876105159242798,0,2,1
9,3,tool,0,0,tools,1,t_238.jpg,238,tbd,65.1674267478304,69.637718945886,4.43291565033663,tool,0.960526127403227,0,2,1
10,3,animal,0,0,tools,1,a_095.jpg,95,tbd,72.1897950393234,77.8107092523503,5.57927548111364,animal,1.01477695593871,0,1,1
11,3,tool,0,0,tools,1,t_201.jpg,201,tbd,80.3630688744104,84.5328175250033,4.12052833689054,tool,1.12798153178278,0,2,1
12,3,tool,0,0,tools,1,t_333.jpg,333,tbd,87.0851713738564,91.755361835171,4.62739540828519,tool,0.941652871433007,0,2,1
13,3,animal,0,0,tools,1,a_059.jpg,59,tbd,94.3077044583431,100.395663440347,6.03787802624285,animal,0.649629615671302,0,1,1
14,3,tool,0,0,tools,1,t_342.jpg,342,tbd,102.948023383141,109.152908735263,6.15038460993749,tool,0.94366900369846,0,2,1
15,3,animal,0,0,tools,1,a_174.jpg,174,tbd,111.688433364247,118.97737404807,7.23794222171201,animal,1.20058666910336,0,1,1
16,3,tool,0,0,tools,1,t_318.jpg,318,tbd,121.54641439028,125.782873412857,4.18640468872215,tool,1.25032926424319,0,2,1
17,3,animal,0,0,tools,1,a_108.jpg,108,tbd,128.335202244479,133.27244812313,4.90077324078064,animal,0.941985151583822,0,1,1
18,3,tool,0,0,tools,1,t_305.jpg,305,tbd,135.807954149557,142.546447746589,6.686463404932,tool,1.40632389002894,0,2,1
19,3,tool,0,0,tools,1,t_324.jpg,324,tbd,145.09876022079,149.36880680095,4.23032976215213,tool,1.19320498216553,0,2,1
20,3,tool,0,0,tools,1,t_303.jpg,303,tbd,151.904302243164,156.674569007034,4.72531338196736,tool,0.673664118923625,0,2,1
21,3,animal,0,0,tools,1,a_115.jpg,115,tbd,159.226934723035,165.598465626853,6.33773511127139,animal,0.779081279653838,0,1,1
22,3,animal,0,0,tools,1,a_042.jpg,42,tbd,168.150799269481,174.505835157982,6.31827664013921,animal,0.626029065163948,0,1,1
23,3,animal,0,0,tools,1,a_015.jpg,15,tbd,177.041324185521,181.19442611374,4.11397673319347,animal,0.782658423013345,0,1,1
24,3,tool,0,0,tools,1,t_184.jpg,184,tbd,183.746792791942,190.61888385723,6.83866235626588,tool,0.712553405165863,0,2,1
25,3,animal,0,0,tools,1,a_043.jpg,43,tbd,193.15435748955,197.774520223433,4.59100291116564,animal,0.625135180241386,0,1,1
26,3,animal,0,0,tools,1,a_093.jpg,93,tbd,200.326826603693,207.015488441606,6.66028318654074,animal,0.89546496829098,0,1,1
27,3,animal,0,0,tools,1,a_014.jpg,14,tbd,209.567713355497,215.922536276797,6.30807936457827,animal,0.674753009958067,0,1,1
28,3,tool,0,0,tools,1,t_359.jpg,359,tbd,218.474886918313,224.813240482996,6.2985352252737,tool,0.657318244794396,0,2,1
29,3,animal,0,0,tools,1,a_171.jpg,171,tbd,227.348741377683,234.320781414234,6.91370054741337,animal,0.79014434841497,0,1,1
30,3,animal,0,0,tools,1,a_017.jpg,17,tbd,236.87312179227,244.195611224895,7.28509926622195,animal,0.706687185131841,0,1,1
31,3,animal,0,0,tools,1,a_029.jpg,29,tbd,246.747792198264,253.85327767528,7.05142648153847,animal,0.746318328505822,0,1,1
32,3,tool,0,0,tools,1,t_235.jpg,235,tbd,256.405596243422,261.526144980357,5.06946621590156,tool,1.07973291438566,0,2,1
33,3,animal,0,0,tools,1,a_106.jpg,106,tbd,264.078489848665,270.700398336274,6.58938210251856,animal,1.03383014353494,0,1,1
34,3,animal,0,0,tools,1,a_070.jpg,70,tbd,273.252598874401,279.824457183217,6.52581664335468,animal,0.945051686835086,0,1,1
35,3,animal,0,0,tools,1,a_162.jpg,162,tbd,282.376604479544,289.58235292615,7.15700990603472,animal,0.784510339605731,0,1,1
36,3,tool,0,0,tools,1,t_241.jpg,241,tbd,292.151214619669,296.354512339797,4.17467922596343,tool,0.79457400204501,0,2,1
37,3,tool,0,0,tools,1,t_186.jpg,186,tbd,298.906720575534,305.361805504224,6.40667390571346,tool,1.38959762568857,0,2,1
38,3,animal,0,0,tools,1,a_002.jpg,2,tbd,307.914033946186,315.136370420892,7.18896043220284,animal,0.782352763762674,0,1,1
39,3,animal,0,0,tools,1,a_008.jpg,8,tbd,317.688605598263,323.092657940726,5.35171669367959,animal,0.84033115977968,0,1,1
40,3,animal,0,0,tools,1,a_011.jpg,11,tbd,325.645011148111,330.315226947391,4.62689743150645,animal,1.08098666256046,0,1,1
41,3,tool,0,0,tools,1,t_209.jpg,209,tbd,332.867542628929,338.505258478725,5.58348332065832,tool,0.566255843159297,0,2,1
42,3,tool,0,0,tools,1,t_352.jpg,352,tbd,341.057466714461,345.110512867084,4.0013480030457,tool,0.531261547409031,0,2,1
43,3,tool,0,0,tools,1,t_271.jpg,271,tbd,347.662847792646,355.402333739858,7.69797172442268,tool,0.658768282015672,0,2,1
44,3,animal,0,0,tools,1,a_153.jpg,153,tbd,357.937804485573,365.627078924923,7.63468528667588,animal,1.25040110860004,0,1,1
45,3,animal,0,0,tools,1,a_151.jpg,151,tbd,368.179438867717,374.784545718557,6.5664796861447,animal,0.626192639369492,0,1,1
46,3,animal,0,0,tools,1,a_046.jpg,46,tbd,377.320191905626,383.541739696076,6.17362551505299,animal,1.20936739659783,0,1,1
47,3,tool,0,0,tools,1,t_189.jpg,189,tbd,386.094008550489,393.966720877024,7.82788860086487,tool,0.606708385631691,0,2,1
48,3,tool,0,0,tools,1,t_213.jpg,213,tbd,396.50236161162,402.457107685117,5.90714218627362,tool,0.835658710711414,0,2,1
49,3,animal,0,0,tools,1,a_004.jpg,4,tbd,405.009265886391,411.647861829558,6.59692885135477,animal,0.60418934286804,0,1,1
50,3,tool,0,0,tools,1,t_258.jpg,258,tbd,414.200019389365,420.254853311832,6.00394625977052,tool,1.25651782168256,0,2,1
51,3,tool,0,0,tools,1,t_227.jpg,227,tbd,422.790335603962,429.3955726727,6.57053086175001,tool,0.632097668185679,0,2,1
52,3,animal,0,0,tools,1,a_033.jpg,33,tbd,431.947761343679,438.519643066057,6.53364988766466,animal,0.78133154754687,0,1,1
53,3,tool,0,0,tools,1,t_205.jpg,205,tbd,441.071849056658,448.127417459381,7.00908445351188,tool,0.963900567041264,0,2,1
54,3,animal,0,0,tools,1,a_087.jpg,87,tbd,450.679606771828,454.74945039168,4.03660195660327,animal,0.806126510487729,0,1,1
55,3,tool,0,0,tools,1,t_288.jpg,288,tbd,457.284962191314,465.041136556285,7.73220581888885,tool,0.84875362769094,0,2,1
56,3,tool,0,0,tools,1,t_232.jpg,232,tbd,467.593288342884,472.180215684826,4.56374826812939,tool,1.4769132158176,0,2,1
57,3,animal,0,0,tools,1,a_067.jpg,67,tbd,474.715620359392,482.35497098904,7.60549579165894,animal,1.05755642166673,0,1,1
58,3,animal,0,0,tools,1,a_142.jpg,142,tbd,484.907313291478,492.06296761877,7.11837066011857,animal,0.69989468606741,0,1,1
59,3,tool,0,0,tools,1,t_328.jpg,328,tbd,494.61519157046,500.569865478867,5.91526872517898,tool,0.706263816600085,0,2,1
60,3,tool,0,0,tools,1,t_312.jpg,312,tbd,503.10539523959,509.29361943632,6.14107823583566,tool,0.965807970570268,0,2,1
