trial,phase,object,toShock,seenBefore,shockedCategory,responseSide,filename,num,name,onsetFixationCross,onsetStimulus,interTrialTime,response,reactionTime,wasShocked,buttonPressed,isResponseCorrect
1,2,tool,0,0,animals,2,t_287.jpg,287,tbd,0.0255597165637482,7.23115900991661,7.11849938497219,0,1.2485293751165,0,2,1
2,2,tool,0,0,animals,2,t_311.jpg,311,tbd,11.8182371048174,18.8074577851512,6.95548838195325,0,1.15972860329566,0,2,1
3,2,animal,1,0,animals,2,a_097.jpg,97,tbd,23.3612867080342,29.6661610722535,6.25706216340861,1,1.32051616589524,1,1,1
4,2,tool,0,0,animals,2,t_334.jpg,334,tbd,34.4370620409427,41.6926911307369,7.20366218584504,0,0.989524210613581,0,2,1
5,2,tool,0,0,animals,2,t_257.jpg,257,tbd,46.2467160237552,53.2188186646372,6.92624698772185,0,1.09386820459395,0,2,1
6,2,animal,0,0,animals,2,a_108.jpg,108,tbd,57.772824313452,64.4446734440312,6.63075534091852,1,0.631523016189931,0,1,0
7,2,animal,1,0,animals,2,a_025.jpg,25,tbd,68.9986980163126,75.4203256781871,6.36524971096535,1,0.867334425564877,1,1,1
8,2,animal,0,0,animals,2,a_157.jpg,157,tbd,80.1745393568385,88.5310773503479,8.32032226092563,1,0.782156054253392,0,1,0
9,2,tool,0,0,animals,2,t_345.jpg,345,tbd,93.0851160350448,99.5734825934951,6.44142540053772,0,1.01726216358202,0,2,1
10,2,animal,1,0,animals,2,a_095.jpg,95,tbd,104.110697675049,112.917791537367,8.76531567619359,1,0.923530064700117,1,1,1
11,2,tool,0,0,animals,2,t_282.jpg,282,tbd,117.671889750799,125.344579211583,7.62192991152089,0,0.793259638742711,0,2,1
12,2,animal,1,0,animals,2,a_146.jpg,146,tbd,129.89859736913,137.070837157034,7.12267035209847,1,1.09957282788537,1,1,1
13,2,animal,1,0,animals,2,a_142.jpg,142,tbd,141.825025176747,148.246795887198,6.38021874579649,1,1.07506790104844,1,1,1
14,2,tool,0,0,animals,2,t_208.jpg,208,tbd,153.000862989169,161.107203248491,8.05542139208285,0,1.47822850482953,0,2,1
15,2,animal,0,0,animals,2,a_035.jpg,35,tbd,165.661202161835,175.385544667597,9.66684130877902,1,0.770506255130385,0,1,0
16,2,animal,1,0,animals,2,a_115.jpg,115,tbd,179.922906325831,186.761535022402,6.77592443958178,1,0.99400810995121,1,1,1
17,2,tool,0,0,animals,2,t_230.jpg,230,tbd,191.515688723287,200.105786233664,8.54179942709347,0,1.22437020246343,0,2,1
18,2,animal,1,0,animals,2,a_074.jpg,74,tbd,204.643162645788,211.915622074197,7.23455699163345,1,1.00704220875468,1,1,1
19,2,tool,0,0,animals,2,t_245.jpg,245,tbd,216.669650687761,226.027327296625,9.31520016429349,0,0.998951625007066,0,2,1
20,2,tool,0,0,animals,2,t_258.jpg,258,tbd,230.581042999445,238.47058800875,7.86310674266612,0,0.978395608659866,0,2,1
21,2,animal,1,0,animals,2,a_172.jpg,172,tbd,243.024586280621,251.497918946821,8.4185174701288,1,0.992456385702553,1,1,1
22,2,tool,0,0,animals,2,t_206.jpg,206,tbd,256.252082590544,263.224339505789,6.92600437160397,0,0.741703456253617,0,2,1
23,2,animal,1,0,animals,2,a_006.jpg,6,tbd,267.778186069191,276.652016903664,8.83335167858491,0,1.12965280037906,1,2,0
24,2,tool,0,0,animals,2,t_262.jpg,262,tbd,281.406012802083,290.062800457055,8.6221259704191,0,1.10322601912003,0,2,1
25,2,tool,0,0,animals,2,t_181.jpg,181,tbd,294.616850367538,301.322166450367,6.65355102703716,0,1.41442338702564,0,2,1
26,2,tool,0,0,animals,2,t_303.jpg,303,tbd,305.859389871076,312.080833237631,6.17766014665303,0,1.19523447887104,0,2,1
27,2,animal,1,0,animals,2,a_048.jpg,48,tbd,316.634878337062,323.373567396284,6.70540214319863,1,1.11992228978579,1,1,1
28,2,animal,0,0,animals,2,a_167.jpg,167,tbd,328.12758799143,336.968058999717,8.80703344478692,1,1.53510314359937,0,1,0
29,2,animal,1,0,animals,2,a_140.jpg,140,tbd,341.521924486586,350.162206067766,8.60165477240409,1,1.00552801070262,1,1,1
30,2,tool,0,0,animals,2,t_240.jpg,240,tbd,354.916201324712,363.422914344249,8.45173292279654,0,0.841423388950261,0,2,1
31,2,tool,0,0,animals,2,t_341.jpg,341,tbd,367.960227571239,374.348504066818,6.33996278236559,0,0.921268870828499,0,2,1
32,2,tool,0,0,animals,2,t_213.jpg,213,tbd,378.885813124231,385.958186402757,7.0358256462129,0,1.40912930673539,0,2,1
33,2,animal,0,0,animals,2,a_090.jpg,90,tbd,390.512054134783,398.935328138238,8.37577288573297,1,1.15953359536979,0,1,0
34,2,tool,0,0,animals,2,t_253.jpg,253,tbd,403.489330900422,410.227999432494,6.69930933808784,0,1.00032983069104,0,2,1
35,2,animal,1,0,animals,2,a_170.jpg,170,tbd,414.781922651972,424.556430946544,9.74322912506027,1,0.829547791177447,1,1,1
36,2,tool,0,0,animals,2,t_356.jpg,356,tbd,429.310498369251,437.883920136113,8.51935923050558,0,0.818624139987605,0,2,1
37,2,tool,0,0,animals,2,t_302.jpg,302,tbd,442.437902050411,450.143978920739,7.66083871374797,0,0.864101078696876,0,2,1
38,2,tool,0,0,animals,2,t_226.jpg,226,tbd,454.69797911703,461.069715219989,6.33969935455236,0,1.37188471740319,0,2,1
39,2,animal,1,0,animals,2,a_173.jpg,173,tbd,465.60689726566,474.814173691319,9.15127235928836,1,0.993060012208389,1,1,1
40,2,animal,1,0,animals,2,a_165.jpg,165,tbd,479.568307827264,489.509542445533,9.89871960329396,1,1.9533200911992,1,1,1
41,2,animal,1,0,animals,2,a_136.jpg,136,tbd,494.246989932913,500.902178073866,6.62445322876313,1,0.829085930301062,1,1,1
42,2,tool,0,0,animals,2,t_263.jpg,263,tbd,505.673031894257,511.911338956046,6.21326420686314,0,0.685449443035395,0,2,1
43,2,animal,1,0,animals,2,a_159.jpg,159,tbd,516.44855596202,522.536565797091,6.04399554395963,1,1.141735594073,1,1,1
44,2,animal,0,0,animals,2,a_133.jpg,133,tbd,527.274072620764,533.42897787193,6.12571530717148,1,0.82477202142536,0,1,0
45,2,tool,0,0,animals,2,t_281.jpg,281,tbd,537.982817699861,545.522045083592,7.50297724505469,0,0.955238417518558,0,2,1
46,2,animal,1,0,animals,2,a_077.jpg,77,tbd,550.059370498578,559.984061837596,9.88285676151944,1,1.29486524676031,1,1,1
47,2,tool,0,0,animals,2,t_254.jpg,254,tbd,564.738047151703,573.17803538708,8.38679049594623,0,0.803442067373908,0,2,1
48,2,tool,0,0,animals,2,t_278.jpg,278,tbd,577.715380046268,587.523298843429,9.77344500670408,0,0.982784249191809,0,2,1
49,2,tool,0,0,animals,2,t_332.jpg,332,tbd,592.077159839983,600.300414086056,8.19059066935072,0,0.87129616552329,0,2,1
50,2,animal,1,0,animals,2,a_101.jpg,101,tbd,604.837616658878,613.344279002014,8.4684766393262,1,1.41100818243785,1,1,1
51,2,tool,0,0,animals,2,t_289.jpg,289,tbd,618.081783580531,628.039674698112,9.91109904385264,0,0.637214168539231,0,2,1
52,2,animal,0,0,animals,2,a_037.jpg,37,tbd,632.576947512275,639.48234749983,6.85265666702703,1,0.802045258961243,0,1,0
53,2,animal,0,0,animals,2,a_091.jpg,91,tbd,644.019692800492,652.326377082019,8.26887243476988,1,0.844588098160784,0,1,0
54,2,tool,0,0,animals,2,t_308.jpg,308,tbd,656.88022973942,664.81977567886,7.8980753869201,0,0.917712542083791,0,2,1
55,2,animal,1,0,animals,2,a_135.jpg,135,tbd,669.3571251491,679.081621929224,9.6858092546642,1,0.82551420619393,1,1,1
56,2,animal,0,0,animals,2,a_161.jpg,161,tbd,683.835639958476,692.792846623899,8.90795301945446,1,1.41694854721754,0,1,0
57,2,animal,1,0,animals,2,a_096.jpg,96,tbd,697.363378552918,705.719929696633,8.30403457082461,1,1.10638142696507,1,1,1
58,2,tool,0,0,animals,2,t_296.jpg,296,tbd,710.457414389473,717.946607486449,7.44960424611898,0,2.43024500865795,0,2,1
59,2,tool,0,0,animals,2,t_241.jpg,241,tbd,722.500618908525,729.773007774856,7.22294088681566,0,1.36737355544483,0,2,1
60,2,animal,0,0,animals,2,a_016.jpg,16,tbd,734.326998349045,742.216488512371,7.84306568183344,1,1.33843540567204,0,1,0
