trial,phase,object,toShock,seenBefore,shockedCategory,responseSide,filename,num,name,onsetFixationCross,onsetStimulus,interTrialTime,response,reactionTime,wasShocked,buttonPressed,isResponseCorrect
1,1,tool,0,0,animals,1,t_221.jpg,221,tbd,0.0216379358397489,7.11072939367875,6.90703012578835,animal,0.785859624170484,0,1,0
2,1,animal,0,0,animals,1,a_162.jpg,162,tbd,9.67944377006927,17.6025777592624,7.88424167904553,animal,1.1244843327429,0,1,1
3,1,tool,0,0,animals,1,t_269.jpg,269,tbd,20.1547819928973,27.7773570376156,7.56872354202548,tool,1.13108537493849,0,2,1
4,1,tool,0,0,animals,1,t_223.jpg,223,tbd,30.3297181105504,34.9166652961189,4.54501563661628,tool,1.07204836824042,0,2,1
5,1,tool,0,0,animals,1,t_193.jpg,193,tbd,37.4688470783201,41.6053822640464,4.08205799367052,tool,0.818496952372925,0,2,1
6,1,animal,0,0,animals,1,a_089.jpg,89,tbd,44.1742489894502,51.7469661357063,7.52459699991358,animal,0.944400422113631,0,1,1
7,1,tool,0,0,animals,1,t_186.jpg,186,tbd,54.2992001976742,59.436558388807,5.09523803783201,tool,0.719073665553651,0,2,1
8,1,animal,0,0,animals,1,a_108.jpg,108,tbd,61.9720199469815,69.3946412416529,7.38028952985293,animal,0.789321314487665,0,1,1
9,1,animal,0,0,animals,1,a_074.jpg,74,tbd,71.9469003209325,78.4685253813509,6.4723611027583,animal,0.762777305347981,0,1,1
10,1,tool,0,0,animals,1,t_323.jpg,323,tbd,81.0042197929646,88.9272572409935,7.88600190819957,tool,0.802505437731952,0,2,1
11,1,animal,0,0,animals,1,a_165.jpg,165,tbd,91.4625702989719,98.0514322710865,6.52970704424866,animal,0.780672060083702,0,1,1
12,1,tool,0,0,animals,1,t_232.jpg,232,tbd,100.603520398736,108.076135904145,7.42283681275797,tool,1.28435201040827,0,2,1
13,1,animal,0,0,animals,1,a_066.jpg,66,tbd,110.645020590696,114.965191183103,4.26479613172117,animal,0.717529648395612,0,1,1
14,1,tool,0,0,animals,1,t_305.jpg,305,tbd,117.517266802097,124.923171721559,7.34335631224147,tool,1.12995478489233,0,2,1
15,1,tool,0,0,animals,1,t_332.jpg,332,tbd,127.475367936824,132.679458523868,5.15693985112116,tool,0.919943754823748,0,2,1
16,1,animal,0,0,animals,1,a_152.jpg,152,tbd,135.214967871523,142.253891601116,6.97920815769807,animal,0.908888989683305,0,1,1
17,1,tool,0,0,animals,1,t_183.jpg,183,tbd,144.806107701938,149.326134861757,4.46154114545746,tool,0.710887552150211,0,2,1
18,1,tool,0,0,animals,1,t_340.jpg,340,tbd,151.87853955462,156.899166328083,4.98278165421189,tool,0.731691691937954,0,2,1
19,1,animal,0,0,animals,1,a_060.jpg,60,tbd,159.434705183336,164.105037634542,4.61836289854678,animal,0.83255154976905,0,1,1
20,1,animal,0,0,animals,1,a_129.jpg,129,tbd,166.657223586295,171.978073494933,5.26694470507008,animal,1.85585421337498,0,1,1
21,1,tool,0,0,animals,1,t_354.jpg,354,tbd,174.530264578443,181.285649153859,6.70003471554597,tool,0.680603454917446,0,2,1
22,1,animal,0,0,animals,1,a_177.jpg,177,tbd,183.837870707171,190.676615210178,6.79438245184859,animal,0.766975723419932,0,1,1
23,1,tool,0,0,animals,1,t_283.jpg,283,tbd,193.228813670587,200.401188721143,7.13067301350912,tool,0.714768763539723,0,2,1
24,1,tool,0,0,animals,1,t_243.jpg,243,tbd,202.953378200978,207.440219896883,4.44265577979998,tool,0.998005785568694,0,2,1
25,1,tool,0,0,animals,1,t_255.jpg,255,tbd,209.992443374603,214.195829948839,4.15172235703093,tool,0.666646040155115,0,2,1
26,1,animal,0,0,animals,1,a_018.jpg,18,tbd,216.747927377797,221.868661886067,5.08161490142109,animal,0.668185246291728,0,1,1
27,1,animal,0,0,animals,1,a_005.jpg,5,tbd,224.420813839935,231.292964472376,6.83429109267944,animal,0.711148309513987,0,1,1
28,1,animal,0,0,animals,1,a_140.jpg,140,tbd,233.845144330168,241.718097761726,7.82562844236838,animal,0.756403343365832,0,1,1
29,1,tool,0,0,animals,1,t_276.jpg,276,tbd,244.270309051525,249.574450924058,5.25639604715484,tool,0.682383532862332,0,2,1
30,1,animal,0,0,animals,1,a_029.jpg,29,tbd,252.126699098356,257.881267403795,5.71748416800938,animal,0.754783632803424,0,1,1
31,1,tool,0,0,animals,1,t_211.jpg,211,tbd,260.433448865262,266.087725654874,5.59013223417197,tool,0.70972937891429,0,2,1
32,1,tool,0,0,animals,1,t_318.jpg,318,tbd,268.640121046428,272.760034152966,4.08592486681788,tool,0.814660323115731,0,2,1
33,1,animal,0,0,animals,1,a_128.jpg,128,tbd,275.312211124145,281.200204771031,5.8296649989642,animal,1.06282082905557,0,1,1
34,1,animal,0,0,animals,1,a_124.jpg,124,tbd,283.752394250867,291.174970963406,7.3905071764343,animal,0.693437335798535,0,1,1
35,1,tool,0,0,animals,1,t_277.jpg,277,tbd,293.710519761436,299.19820082022,5.44524875251424,tool,1.19350773707936,0,2,1
36,1,tool,0,0,animals,1,t_184.jpg,184,tbd,301.750404091651,306.520661138113,4.70976206274343,tool,0.84929967772041,0,2,1
37,1,animal,0,0,animals,1,a_131.jpg,131,tbd,309.072979553324,316.92936927942,7.79467697519606,animal,0.924995648104982,0,1,1
38,1,animal,0,0,animals,1,a_045.jpg,45,tbd,319.481482424382,325.803151168875,6.27253778794404,animal,0.70154422771509,0,1,1
39,1,tool,0,0,animals,1,t_282.jpg,282,tbd,328.355330385198,333.859612033942,5.46424363937694,tool,1.31639630003053,0,2,1
40,1,animal,0,0,animals,1,a_001.jpg,1,tbd,336.411870792486,343.934570635102,7.47565587831485,animal,0.691725895093214,0,1,1
41,1,tool,0,0,animals,1,t_196.jpg,196,tbd,346.486763963755,351.173723305171,4.63544784851988,tool,0.68293166857552,0,2,1
42,1,tool,0,0,animals,1,t_217.jpg,217,tbd,353.725959933017,359.447183048628,5.68647659628817,tool,1.06581777469842,0,2,1
43,1,animal,0,0,animals,1,a_115.jpg,115,tbd,361.999351680704,366.80313801875,4.76295006388528,animal,0.797107471639379,0,1,1
44,1,tool,0,0,animals,1,t_290.jpg,290,tbd,369.355338403567,374.275884383943,4.87649005708197,tool,0.940659051081525,0,2,1
45,1,animal,0,0,animals,1,a_170.jpg,170,tbd,376.828069694226,382.916238398147,6.04432124764201,animal,0.807631420743746,0,1,1
46,1,animal,0,0,animals,1,a_133.jpg,133,tbd,385.451711502773,392.807621249293,7.32080592072035,animal,0.64458654449777,0,1,1
47,1,animal,0,0,animals,1,a_168.jpg,168,tbd,395.359823558519,403.04925223689,7.64740511196127,animal,0.676347304587807,0,1,1
48,1,tool,0,0,animals,1,t_252.jpg,252,tbd,405.601479242693,410.021582448725,4.37476465645842,tool,0.8012937017902,0,2,1
49,1,animal,0,0,animals,1,a_171.jpg,171,tbd,412.57379405926,418.9455336701,6.32468747473873,animal,0.714664845475909,0,1,1
50,1,animal,0,0,animals,1,a_144.jpg,144,tbd,421.497731809774,428.319773408431,6.77899428925918,animal,0.702808243423306,0,1,1
51,1,tool,0,0,animals,1,t_294.jpg,294,tbd,430.855348185978,438.227858201722,7.34051254754576,tool,0.75909591171694,0,2,1
52,1,animal,0,0,animals,1,a_161.jpg,161,tbd,440.780066925644,447.919093258289,7.09107821807338,animal,0.8672325998931,0,1,1
53,1,animal,0,0,animals,1,a_057.jpg,57,tbd,450.454299190856,456.259185649145,5.76345306536405,animal,0.77142142799562,0,1,1
54,1,animal,0,0,animals,1,a_158.jpg,158,tbd,458.811408485396,464.849539037917,5.99568343075719,animal,0.790431056773969,0,1,1
55,1,tool,0,0,animals,1,t_302.jpg,302,tbd,467.401715688361,474.740891098525,7.30844126313312,tool,0.820433869617887,0,2,1
56,1,animal,0,0,animals,1,a_084.jpg,84,tbd,477.276396597362,481.396259990011,4.0608375913874,animal,0.66932545838074,0,1,1
57,1,tool,0,0,animals,1,t_346.jpg,346,tbd,483.948481864058,491.037509174944,7.05420577198796,tool,0.766441700036467,0,2,1
58,1,animal,0,0,animals,1,a_041.jpg,41,tbd,493.589676203346,501.295797843289,7.66695227439959,animal,0.821517311653565,0,1,1
59,1,tool,0,0,animals,1,t_308.jpg,308,tbd,503.848003680597,509.452460739183,5.55835108840557,tool,0.676182126184017,0,2,1
60,1,tool,0,0,animals,1,t_300.jpg,300,tbd,512.004629371259,519.143616574263,7.0857107663628,tool,0.843404572742202,0,2,1
