trial,phase,object,toShock,seenBefore,shockedCategory,responseSide,filename,num,name,onsetFixationCross,onsetStimulus,interTrialTime,response,reactionTime,wasShocked,buttonPressed,isResponseCorrect
1,2,animal,0,0,tools,1,a_132.jpg,132,tbd,0.0256409452094886,9.59999565293401,9.47806900716425,0,0.635809135808813,0,2,1
2,2,tool,1,0,tools,1,t_359.jpg,359,tbd,14.1872642246126,20.6757683422438,6.44907449315184,0,1.12758862732335,1,2,0
3,2,animal,0,0,tools,1,a_110.jpg,110,tbd,25.4299863643691,34.9209758788111,9.45671529671441,0,1.05882502002441,0,2,1
4,2,tool,0,0,tools,1,t_218.jpg,218,tbd,39.4581445727536,47.1642516119209,7.67923403650379,1,0.943343714545335,0,1,0
5,2,tool,1,0,tools,1,t_347.jpg,347,tbd,51.718274433053,58.4401752404146,6.67487207918979,0,0.927598057013711,1,2,0
6,2,tool,1,0,tools,1,t_240.jpg,240,tbd,63.1776879576664,69.7329424117515,6.51284733020041,0,1.09671537390113,1,2,0
7,2,animal,0,0,tools,1,a_043.jpg,43,tbd,74.4869808207377,83.0437196491212,8.50804175429223,0,0.879543844636828,0,2,1
8,2,tool,1,0,tools,1,t_319.jpg,319,tbd,87.5977594693541,96.8218797819327,9.18985816588453,0,1.12492522106368,1,2,0
9,2,animal,0,0,tools,1,a_037.jpg,37,tbd,101.575926850838,109.348850619173,7.74564566807515,1,0.635650370623807,0,1,0
10,2,tool,0,0,tools,1,t_235.jpg,235,tbd,113.886041444021,122.009095367735,8.09620057958479,1,0.951012554103727,0,1,0
11,2,animal,0,0,tools,1,a_137.jpg,137,tbd,126.563148338215,136.587796713422,9.99456342948396,0,1.01606298049228,0,2,1
12,2,tool,1,0,tools,1,t_258.jpg,258,tbd,141.141810874635,148.347418845866,7.15916500496057,1,0.622902007347875,1,1,1
13,2,tool,1,0,tools,1,t_349.jpg,349,tbd,153.101629491023,160.474049636946,7.32036684386741,1,0.693859460844578,1,1,1
14,2,animal,0,0,tools,1,a_050.jpg,50,tbd,165.211638651293,172.450562973863,7.19133346786932,0,1.03496245230144,0,2,1
15,2,animal,0,0,tools,1,a_091.jpg,91,tbd,176.987939505867,185.194540801905,8.16283271830957,0,0.764383597642336,0,2,1
16,2,tool,0,0,tools,1,t_294.jpg,294,tbd,189.731693779698,196.770740713894,7.00102056812648,1,1.04357458157574,0,1,0
17,2,animal,0,0,tools,1,a_013.jpg,13,tbd,201.307934425381,209.197627261255,7.85147651495227,0,0.803585127433507,0,2,1
18,2,tool,1,0,tools,1,t_341.jpg,341,tbd,213.734835085203,223.092213913689,9.32285573061624,1,0.883293268911984,1,1,1
19,2,tool,1,0,tools,1,t_195.jpg,195,tbd,227.829768006111,235.385830077846,7.51054113824279,1,0.894611783305663,1,1,1
20,2,tool,1,0,tools,1,t_321.jpg,321,tbd,240.139864958717,248.31299662926,8.12344944933834,0,0.994952021909739,1,2,0
21,2,animal,0,0,tools,1,a_003.jpg,3,tbd,253.050468933556,261.090282751707,7.99674653801439,0,1.0282776361546,0,2,1
22,2,animal,0,0,tools,1,a_038.jpg,38,tbd,265.644174391101,272.216090850464,6.53734168756456,0,0.854931392057551,0,2,1
23,2,animal,0,0,tools,1,a_041.jpg,41,tbd,276.753275260557,284.72640064464,7.93547554017883,0,1.22516699317748,0,2,1
24,2,tool,0,0,tools,1,t_198.jpg,198,tbd,289.280279454523,297.720246970204,8.39864679627013,1,1.04971157764976,0,1,0
25,2,tool,0,0,tools,1,t_272.jpg,272,tbd,302.257599446877,311.548283426539,9.24934681525206,1,1.13076168586667,0,1,0
26,2,tool,1,0,tools,1,t_290.jpg,290,tbd,316.102333189643,324.759194154961,8.61873874339398,1,0.770024733156788,1,1,1
27,2,animal,0,0,tools,1,a_005.jpg,5,tbd,329.479995473322,338.52062588978,8.98746352227882,0,1.11768777377711,0,2,1
28,2,tool,1,0,tools,1,t_268.jpg,268,tbd,343.074494756793,350.046592817869,6.92126488710744,0,0.696248957067837,1,2,0
29,2,animal,0,0,tools,1,a_145.jpg,145,tbd,354.800829763522,362.673817615259,7.83851271885915,0,0.935668139494737,0,2,1
30,2,animal,0,0,tools,1,a_014.jpg,14,tbd,367.227694500716,374.583602105152,7.29912110598486,0,0.720409490159909,0,2,1
31,2,tool,0,0,tools,1,t_332.jpg,332,tbd,379.120789401884,385.492588278788,6.32675981201881,0,1.34594784847013,0,2,1
32,2,animal,0,0,tools,1,a_059.jpg,59,tbd,390.046450089571,397.051929252523,6.95541986747351,0,0.66711153633787,0,2,1
33,2,animal,0,0,tools,1,a_152.jpg,152,tbd,401.605986071856,407.910835434166,6.27007641394898,0,0.93973701856703,0,2,1
34,2,tool,0,0,tools,1,t_277.jpg,277,tbd,412.46483804882,418.870033102274,6.36818981350892,0,0.78704692692645,0,2,1
35,2,tool,0,0,tools,1,t_293.jpg,293,tbd,423.423903893714,430.262738627815,6.78445074408533,0,0.897882025386934,0,2,1
36,2,animal,0,0,tools,1,a_143.jpg,143,tbd,434.816632512373,443.673801257634,8.81168227664126,1,1.09346501756136,0,1,0
37,2,animal,0,0,tools,1,a_097.jpg,97,tbd,448.210937236327,454.565890004486,6.30410470892872,0,0.855442648027747,0,2,1
38,2,tool,1,0,tools,1,t_265.jpg,265,tbd,459.086570212273,467.943548118574,8.81912893454173,0,0.935851280748466,1,2,0
39,2,animal,0,0,tools,1,a_018.jpg,18,tbd,472.680972632945,479.152769842013,6.4347160414046,0,0.85416771547898,0,2,1
40,2,animal,0,0,tools,1,a_077.jpg,77,tbd,483.690052718594,493.347937158067,9.60679046665142,0,0.648636721307412,0,2,1
41,2,animal,0,0,tools,1,a_076.jpg,76,tbd,497.901692804655,507.125755705176,9.17164879105248,0,0.831474557585352,0,2,1
42,2,tool,1,0,tools,1,t_263.jpg,263,tbd,511.679745811058,519.235905387069,7.53356446804214,0,0.922632715934924,1,2,0
43,2,animal,0,0,tools,1,a_123.jpg,123,tbd,523.956591560577,531.295651131841,7.31369212620683,0,0.804721501275708,0,2,1
44,2,animal,0,0,tools,1,a_008.jpg,8,tbd,535.849622314196,545.123670268338,9.24623258677567,0,0.593346665332319,0,2,1
45,2,animal,0,0,tools,1,a_026.jpg,26,tbd,549.677760765135,559.685702231779,9.97266098362032,0,0.64201060016876,0,2,1
46,2,tool,1,0,tools,1,t_248.jpg,248,tbd,564.239705487908,572.079184904885,7.80358494470779,1,0.845029255558984,1,1,1
47,2,tool,1,0,tools,1,t_252.jpg,252,tbd,576.833359948152,585.623642364154,8.74880015098369,1,0.867246438634538,1,1,1
48,2,animal,0,0,tools,1,a_178.jpg,178,tbd,590.377875460954,598.751232161101,8.33713398996897,0,0.750882783609995,0,2,1
49,2,tool,0,0,tools,1,t_182.jpg,182,tbd,603.288376799713,610.944646324623,7.62137053481502,0,0.809147361462237,0,2,1
50,2,tool,1,0,tools,1,t_334.jpg,334,tbd,615.481836187258,623.071282568246,7.55009490363129,0,0.886476911799946,1,2,0
51,2,tool,1,0,tools,1,t_325.jpg,325,tbd,627.825325146823,634.647308640376,6.77598280994054,0,0.774593321641078,1,2,0
52,2,animal,0,0,tools,1,a_010.jpg,10,tbd,639.368184690631,645.572951687487,6.16389772374508,0,0.599788041527972,0,2,1
53,2,tool,0,0,tools,1,t_187.jpg,187,tbd,650.126912606233,656.548642973556,6.3704465636281,0,1.14463519716173,0,2,1
54,2,animal,0,0,tools,1,a_080.jpg,80,tbd,661.086027203265,669.959839351015,8.83724151750056,0,0.662073708528624,0,2,1
55,2,animal,0,0,tools,1,a_021.jpg,21,tbd,674.513688332288,682.836928797075,8.28316320548676,0,1.09759130869134,0,2,1
56,2,animal,0,0,tools,1,a_118.jpg,118,tbd,687.39089997943,696.965210746083,9.52124309546896,0,0.840985394030213,0,2,1
57,2,tool,1,0,tools,1,t_285.jpg,285,tbd,701.535871196425,711.477308011729,9.90064322785415,1,0.637544647764116,1,1,1
58,2,animal,0,0,tools,1,a_063.jpg,63,tbd,716.214632455923,724.804745009214,8.5343045769372,1,0.631740898211319,0,1,0
59,2,tool,1,0,tools,1,t_233.jpg,233,tbd,729.37550168088,736.047494090942,6.64242993915668,1,0.618475826423492,1,1,1
60,2,tool,1,0,tools,1,t_317.jpg,317,tbd,740.80158221428,749.008135399654,8.15501609197548,0,0.683456973459215,1,2,0
