trial,phase,object,toShock,seenBefore,shockedCategory,responseSide,filename,num,name,onsetFixationCross,onsetStimulus,interTrialTime,response,reactionTime,wasShocked,buttonPressed,isResponseCorrect
1,3,animal,0,0,tools,1,a_094.jpg,94,tbd,0.0312600727893368,5.35205574106112,5.25643536449479,animal,0.790205933076322,0,1,1
2,3,animal,0,0,tools,1,a_072.jpg,72,tbd,7.92096420052894,13.0751116978927,5.11796921963877,animal,0.691456866416956,0,1,1
3,3,animal,0,0,tools,1,a_013.jpg,13,tbd,15.6274515930509,22.232601902625,6.56497578556387,animal,0.621335384566009,0,1,1
4,3,tool,0,0,tools,1,t_187.jpg,187,tbd,24.784885348301,30.2891010982194,5.46595194985036,tool,0.711181149187723,0,2,1
5,3,tool,0,0,tools,1,t_203.jpg,203,tbd,32.8247928866167,40.0305380967493,7.16210203054655,tool,0.676135963944034,0,2,1
6,3,animal,0,0,tools,1,a_025.jpg,25,tbd,42.5826643819373,47.6867883373016,5.0682499771736,animal,0.737857057318251,0,1,1
7,3,animal,0,0,tools,1,a_068.jpg,68,tbd,50.2056245029444,57.3446663114837,7.09761990601357,animal,0.624721711988968,0,1,1
8,3,animal,0,0,tools,1,a_035.jpg,35,tbd,59.8802057504272,65.9182466070224,6.00941002056569,animal,0.649464866847666,0,1,1
9,3,tool,0,0,tools,1,t_337.jpg,337,tbd,68.4705640506818,75.3424891576151,6.81997887010514,tool,0.689348991457337,0,2,1
10,3,animal,0,0,tools,1,a_107.jpg,107,tbd,77.8782322637217,85.4842806332299,7.56209073326161,animal,0.675898619532745,0,1,1
11,3,tool,0,0,tools,1,t_225.jpg,225,tbd,88.0198258454157,96.0093567117356,7.94029389353224,tool,0.7276063446443,0,2,1
12,3,tool,0,0,tools,1,t_257.jpg,257,tbd,98.5617492075471,106.034257347819,7.41906809611917,tool,0.941761565322849,0,2,1
13,3,animal,0,0,tools,1,a_039.jpg,39,tbd,108.569932457959,112.823433288024,4.21621266505654,animal,0.874024432597253,0,1,1
14,3,animal,0,0,tools,1,a_029.jpg,29,tbd,115.375530707,120.095765151959,4.67612488751727,animal,0.570153665988073,0,1,1
15,3,tool,0,0,tools,1,t_182.jpg,182,tbd,122.631321589894,127.535147068625,4.87172935189387,tool,0.716064029343215,0,2,1
16,3,tool,0,0,tools,1,t_228.jpg,228,tbd,130.087405817653,137.81023212773,7.68681430927117,tool,0.637405204877723,0,2,1
17,3,tool,0,0,tools,1,t_235.jpg,235,tbd,140.345839241904,147.167792445284,6.78248489978274,tool,0.636227142685129,0,2,1
18,3,animal,0,0,tools,1,a_112.jpg,112,tbd,149.720148056491,156.242011325583,6.47389907387341,animal,0.778955166517335,0,1,1
19,3,animal,0,0,tools,1,a_065.jpg,65,tbd,158.777528313028,163.564661808355,4.74677202125748,animal,0.928969984505784,0,1,1
20,3,tool,0,0,tools,1,t_307.jpg,307,tbd,166.116883031306,172.955651765478,6.81301714602396,tool,0.851446243650571,0,2,1
21,3,animal,0,0,tools,1,a_082.jpg,82,tbd,175.507885497123,180.511819320369,4.97134271531839,animal,0.928636419388567,0,1,1
22,3,tool,0,0,tools,1,t_339.jpg,339,tbd,183.064034770079,187.200628082355,4.09146615322232,tool,1.20004873409925,0,2,1
23,3,animal,0,0,tools,1,a_053.jpg,53,tbd,189.752743783265,196.174405053019,6.39560514536219,animal,1.80166614004065,0,1,1
24,3,tool,0,0,tools,1,t_330.jpg,330,tbd,198.726826735779,204.514770409459,5.74057783257102,tool,1.33427373403538,0,2,1
25,3,tool,0,0,tools,1,t_318.jpg,318,tbd,207.066936145137,211.804022684758,4.70700818472129,tool,1.10566327651213,0,2,1
26,3,tool,0,0,tools,1,t_247.jpg,247,tbd,214.339564048116,221.828711956021,7.44150902365182,tool,0.760165507549573,0,2,1
27,3,animal,0,0,tools,1,a_135.jpg,135,tbd,224.364396367497,231.320099240519,6.92179272533952,animal,0.772289316657407,0,1,1
28,3,animal,0,0,tools,1,a_073.jpg,73,tbd,233.855449124669,241.761970707615,7.86703552532447,animal,0.882902396516329,0,1,1
29,3,tool,0,0,tools,1,t_231.jpg,231,tbd,244.314044392149,249.601328953986,5.24653362133072,tool,0.979879398483718,0,2,1
30,3,animal,0,0,tools,1,a_132.jpg,132,tbd,252.153777899279,259.359507072628,7.16945578326041,animal,0.950094278567121,0,1,1
31,3,animal,0,0,tools,1,a_040.jpg,40,tbd,261.911677940077,268.667061167909,6.71801224316159,animal,0.78889861440075,0,1,1
32,3,tool,0,0,tools,1,t_241.jpg,241,tbd,271.219285918954,276.123164319073,4.86441425898785,tool,0.739108888719784,0,2,1
33,3,animal,0,0,tools,1,a_064.jpg,64,tbd,278.675358920963,284.429942233984,5.73160581712588,animal,0.807326162773279,0,1,1
34,3,tool,0,0,tools,1,t_218.jpg,218,tbd,286.965438052873,293.554015307837,6.56184125316211,tool,0.848729612350326,0,2,1
35,3,animal,0,0,tools,1,a_123.jpg,123,tbd,296.106251926103,302.044311770251,5.88706795468456,animal,0.778010920644192,0,1,1
36,3,animal,0,0,tools,1,a_136.jpg,136,tbd,304.596437093232,310.801417669479,6.16876902159496,animal,0.771037164520749,0,1,1
37,3,animal,0,0,tools,1,a_098.jpg,98,tbd,313.353651721858,321.27670273936,7.88144431943105,animal,0.729398294947714,0,1,1
38,3,tool,0,0,tools,1,t_217.jpg,217,tbd,323.828796309507,330.901167431492,7.04985556943189,tool,0.681314883141567,0,2,1
39,3,tool,0,0,tools,1,t_356.jpg,356,tbd,333.45340020093,340.442338668428,6.95605293225174,tool,0.892101096125771,0,2,1
40,3,animal,0,0,tools,1,a_077.jpg,77,tbd,342.977813318763,349.349538607361,6.34220322442048,animal,1.03773370237195,0,1,1
41,3,tool,0,0,tools,1,t_264.jpg,264,tbd,351.901788055054,359.407782605113,7.45951213348217,tool,0.813871095278046,0,2,1
42,3,tool,0,0,tools,1,t_239.jpg,239,tbd,361.959921719728,366.947160929539,4.95396803623744,tool,1.07979754673579,0,2,1
43,3,animal,0,0,tools,1,a_074.jpg,74,tbd,369.499480297613,374.519899614625,4.97028664797851,animal,0.986325544396095,0,1,1
44,3,tool,0,0,tools,1,t_279.jpg,279,tbd,377.055628287626,384.878380443611,7.77810669527813,tool,1.075241816985,0,2,1
45,3,tool,0,0,tools,1,t_308.jpg,308,tbd,387.414092759092,393.435454718299,5.98437751011596,tool,0.662507583710067,0,2,1
46,3,animal,0,0,tools,1,a_163.jpg,163,tbd,395.987739767655,401.308441139633,5.29622525317689,animal,0.951947810123784,0,1,1
47,3,animal,0,0,tools,1,a_086.jpg,86,tbd,403.86083844648,408.78118854873,4.89243192468553,animal,0.974430099099663,0,1,1
48,3,tool,0,0,tools,1,t_230.jpg,230,tbd,411.316924919388,417.688671376542,6.32113518838566,tool,0.832888155850924,0,2,1
49,3,animal,0,0,tools,1,a_125.jpg,125,tbd,420.224213381371,424.827815820501,4.56425990577303,animal,0.811506311030826,0,1,1
50,3,tool,0,0,tools,1,t_227.jpg,227,tbd,427.379980593972,432.417137503004,4.98850245371827,tool,0.674334391568664,0,2,1
51,3,tool,0,0,tools,1,t_263.jpg,263,tbd,434.952809726523,441.991656271173,6.98792843026305,tool,1.29303385966068,0,2,1
52,3,tool,0,0,tools,1,t_296.jpg,296,tbd,444.527357681641,450.531949013053,5.96604820792152,tool,1.12742647606865,0,2,1
53,3,animal,0,0,tools,1,a_011.jpg,11,tbd,453.084283134968,458.438575797306,5.31722539439316,animal,1.24513230498997,0,1,1
54,3,tool,0,0,tools,1,t_198.jpg,198,tbd,460.990788360395,467.095446340683,6.06275847113317,tool,0.612595657730708,0,2,1
55,3,tool,0,0,tools,1,t_193.jpg,193,tbd,469.647868664913,475.769347949236,6.07214411703612,tool,0.626034803906805,0,2,1
56,3,tool,0,0,tools,1,t_252.jpg,252,tbd,478.321594510308,483.992729132059,5.64197734111943,tool,0.978592286156527,0,2,1
57,3,animal,0,0,tools,1,a_044.jpg,44,tbd,486.528295833536,493.283477960091,6.71192845325744,animal,0.684635780482495,0,1,1
58,3,animal,0,0,tools,1,a_087.jpg,87,tbd,495.819199897642,503.575413510178,7.71986246003787,animal,0.613077723473907,0,1,1
59,3,animal,0,0,tools,1,a_168.jpg,168,tbd,506.127624790323,513.433592206144,7.27232948974694,animal,0.908075657936024,0,1,1
60,3,tool,0,0,tools,1,t_268.jpg,268,tbd,515.968948184272,522.84091755273,6.82297236498196,tool,0.700382619953416,0,2,1
