trial,phase,object,toShock,seenBefore,shockedCategory,responseSide,filename,num,name,onsetFixationCross,onsetStimulus,interTrialTime,response,reactionTime,wasShocked,buttonPressed,isResponseCorrect
1,3,tool,0,0,tools,2,t_347.jpg,347,tbd,0.031352616753793,7.23708246832939,7.13239546358116,tool,1.47832051299156,0,1,1
2,3,tool,0,0,tools,2,t_184.jpg,184,tbd,9.82281823430822,15.9275509763729,6.07183038406836,tool,0.801233825275631,0,1,1
3,3,tool,0,0,tools,2,t_323.jpg,323,tbd,18.4966699610968,25.3020751619233,6.77089025190442,tool,0.575984836562384,0,1,1
4,3,animal,0,0,tools,2,a_063.jpg,63,tbd,27.8376792971312,33.6254493743518,5.74532373030064,animal,0.702144784628217,0,2,1
5,3,animal,0,0,tools,2,a_111.jpg,111,tbd,36.1778415647723,41.3986290914099,5.17974056774951,animal,0.979352647064843,0,2,1
6,3,animal,0,0,tools,2,a_078.jpg,78,tbd,43.9509410973933,48.3041891444209,4.31460752081336,animal,0.690101723661428,0,2,1
7,3,tool,0,0,tools,2,t_293.jpg,293,tbd,50.8399340835003,55.710262698567,4.83616560856718,tool,1.18640361742564,0,1,1
8,3,animal,0,0,tools,2,a_139.jpg,139,tbd,58.245899869763,64.4174355492714,6.11946277899174,animal,0.976181512950461,0,2,1
9,3,animal,0,0,tools,2,a_048.jpg,48,tbd,66.9531641307258,72.0905874262935,5.11220322556814,animal,0.690848080401338,0,2,1
10,3,animal,0,0,tools,2,a_134.jpg,134,tbd,74.6261206784584,81.7316594344838,7.06275748518252,animal,0.538377694117116,0,2,1
11,3,tool,0,0,tools,2,t_353.jpg,353,tbd,84.2673876951994,91.7065222549491,7.39147511002333,tool,0.931793333033056,0,1,1
12,3,animal,0,0,tools,2,a_176.jpg,176,tbd,94.2589599901294,100.830890882691,6.53156472388757,animal,0.778864612508187,0,2,1
13,3,animal,0,0,tools,2,a_179.jpg,179,tbd,103.383119496861,107.936560499717,4.51275320717643,animal,0.705548453612209,0,2,1
14,3,animal,0,0,tools,2,a_022.jpg,22,tbd,110.488885335211,117.511065312709,6.97363059145514,animal,0.932300098676023,0,2,1
15,3,tool,0,0,tools,2,t_330.jpg,330,tbd,120.06350304789,125.951368640812,5.83981179268977,tool,0.865272324069338,0,1,1
16,3,animal,0,0,tools,2,a_125.jpg,125,tbd,128.487115825055,132.940630661742,4.41901077687696,animal,0.802640260301814,0,2,1
17,3,tool,0,0,tools,2,t_298.jpg,298,tbd,135.476188289976,143.03212944358,7.51233239549925,tool,1.08232485962981,0,1,1
18,3,tool,0,0,tools,2,t_282.jpg,282,tbd,145.567773671006,151.805987200237,6.19120155136579,tool,0.70620436230729,0,1,1
19,3,animal,0,0,tools,2,a_041.jpg,41,tbd,154.358350844998,162.281403614055,7.87947164759631,animal,0.551245051097794,0,2,1
20,3,animal,0,0,tools,2,a_100.jpg,100,tbd,164.833605606992,172.10618426151,7.22720290612553,animal,0.917498372336922,0,2,1
21,3,animal,0,0,tools,2,a_079.jpg,79,tbd,174.64172809802,178.895063770601,4.20792064703219,animal,0.622345874367056,0,2,1
22,3,tool,0,0,tools,2,t_261.jpg,261,tbd,181.447316760839,185.850851675709,4.37783019648111,tool,0.866958763149341,0,1,1
23,3,animal,0,0,tools,2,a_036.jpg,36,tbd,188.402945900762,194.908070327764,6.46866413300238,animal,0.550083018235455,0,2,1
24,3,tool,0,0,tools,2,t_314.jpg,314,tbd,197.460495233435,205.016369673587,7.50783329567566,tool,1.27029097176273,0,1,1
25,3,animal,0,0,tools,2,a_173.jpg,173,tbd,207.552095368402,212.072184135781,4.47535788120495,animal,0.845377923765227,0,2,1
26,3,animal,0,0,tools,2,a_037.jpg,37,tbd,214.60792041494,219.244751949363,4.57894021619448,animal,0.708271517093635,0,2,1
27,3,animal,0,0,tools,2,a_177.jpg,177,tbd,221.780473795324,228.969564734739,7.14278131289229,animal,0.734249671004363,0,2,1
28,3,tool,0,0,tools,2,t_180.jpg,180,tbd,231.521768010626,237.159481253118,5.59281215619186,tool,0.7568725873316,0,1,1
29,3,animal,0,0,tools,2,a_160.jpg,160,tbd,239.711866387308,244.382116549922,4.62316918353701,animal,0.734015532448211,0,2,1
30,3,animal,0,0,tools,2,a_092.jpg,92,tbd,246.951203460872,252.655700396543,5.65853049479313,animal,0.752232795067357,0,2,1
31,3,animal,0,0,tools,2,a_141.jpg,141,tbd,255.207904955381,261.212664382825,5.97265847608719,animal,0.794326417132652,0,2,1
32,3,tool,0,0,tools,2,t_215.jpg,215,tbd,263.765001406354,269.969977524221,6.15440793928877,tool,0.494749983402471,0,1,1
33,3,tool,0,0,tools,2,t_183.jpg,183,tbd,272.505564660328,276.84211477945,4.30156898119177,tool,0.622486998976456,0,1,1
34,3,tool,0,0,tools,2,t_332.jpg,332,tbd,279.36112522652,285.932927503244,6.52632504411916,tool,0.659581923237965,0,1,1
35,3,animal,0,0,tools,2,a_110.jpg,110,tbd,288.468649990681,295.140524048514,6.62315578501715,animal,0.713070074543793,0,2,1
36,3,tool,0,0,tools,2,t_312.jpg,312,tbd,297.676209971847,304.164785934734,6.44869153531302,tool,0.824575835635187,0,1,1
37,3,tool,0,0,tools,2,t_292.jpg,292,tbd,306.700240926889,312.154672111323,5.40150642272222,tool,0.721089159722396,0,1,1
38,3,tool,0,0,tools,2,t_319.jpg,319,tbd,314.706878273849,319.377271485499,4.63956906551272,tool,0.637786189562576,0,1,1
39,3,animal,0,0,tools,2,a_087.jpg,87,tbd,321.912830396684,328.201271457274,6.24337730350806,animal,0.771213734264165,0,2,1
40,3,animal,0,0,tools,2,a_070.jpg,70,tbd,330.753413151513,336.991590116641,6.18475579400357,animal,0.66930284290811,0,2,1
41,3,tool,0,0,tools,2,t_283.jpg,283,tbd,339.543876142868,347.133245867533,7.54130279358349,tool,0.608112816055836,0,1,1
42,3,tool,0,0,tools,2,t_224.jpg,224,tbd,349.685682961239,357.358324544503,7.63183370786763,tool,0.667533653489045,0,1,1
43,3,tool,0,0,tools,2,t_329.jpg,329,tbd,359.910725074105,367.500035462288,7.55033998782047,tool,0.625304038618197,0,1,1
44,3,animal,0,0,tools,2,a_057.jpg,57,tbd,370.052368636962,376.674197983953,6.59015952624389,animal,0.988555896010439,0,2,1
45,3,tool,0,0,tools,2,t_281.jpg,281,tbd,379.209902510076,383.813576496834,4.56242820306986,tool,0.632508770654567,0,1,1
46,3,animal,0,0,tools,2,a_081.jpg,81,tbd,386.365799979199,391.536601169264,5.13086771816401,animal,0.678880392805695,0,2,1
47,3,tool,0,0,tools,2,t_320.jpg,320,tbd,394.088754410062,399.142857415632,5.02029539756832,tool,0.567629938961545,0,1,1
48,3,tool,0,0,tools,2,t_300.jpg,300,tbd,401.678413440177,409.201119748319,7.49138421857334,tool,0.62016870653315,0,1,1
49,3,tool,0,0,tools,2,t_208.jpg,208,tbd,411.753328476748,418.141772680568,6.33790288220236,tool,0.781941770464073,0,1,1
50,3,animal,0,0,tools,2,a_038.jpg,38,tbd,420.694039462529,428.099809919503,7.360117421462,animal,1.03440118751678,0,2,1
51,3,animal,0,0,tools,2,a_124.jpg,124,tbd,430.652197619595,435.756271887062,5.07307923706651,animal,0.648281690895601,0,2,1
52,3,animal,0,0,tools,2,a_047.jpg,47,tbd,438.308486388771,443.162399966626,4.82447538742459,animal,0.922519201046271,0,2,1
53,3,tool,0,0,tools,2,t_202.jpg,202,tbd,445.697838601155,452.703590711931,6.9727179767474,tool,0.936668867543631,0,1,1
54,3,tool,0,0,tools,2,t_254.jpg,254,tbd,455.239138397294,463.178846115399,7.89095157036151,tool,0.73699935571949,0,1,1
55,3,tool,0,0,tools,2,t_231.jpg,231,tbd,465.714285070667,470.668332652754,4.9168935115278,tool,0.830864861400187,0,1,1
56,3,animal,0,0,tools,2,a_013.jpg,13,tbd,473.220598151764,480.242705963267,6.972663706535,animal,0.465904113286342,0,2,1
57,3,animal,0,0,tools,2,a_031.jpg,31,tbd,482.795116756477,488.299325797946,5.46458299719493,animal,0.864706221944289,0,2,1
58,3,tool,0,0,tools,2,t_218.jpg,218,tbd,490.851603484991,495.789000608358,4.89738253175451,tool,0.846394662427883,0,1,1
59,3,tool,0,0,tools,2,t_195.jpg,195,tbd,498.341239806873,503.495320938127,5.11434182841651,tool,0.890592003383972,0,1,1
60,3,tool,0,0,tools,2,t_227.jpg,227,tbd,506.030860925785,511.651874636683,5.58997423687153,tool,0.738254402527673,0,1,1
