trial,phase,object,toShock,seenBefore,shockedCategory,responseSide,filename,num,name,onsetFixationCross,onsetStimulus,interTrialTime,response,reactionTime,wasShocked,buttonPressed,isResponseCorrect
1,1,animal,0,0,tools,1,a_067.jpg,67,tbd,0.104029231214554,5.90904252505698,5.68021931021977,,2.5087642573917,0,,0
2,1,animal,0,0,tools,1,a_158.jpg,158,tbd,8.44452434456161,15.0999979945127,6.62188602208156,animal,1.01163798610378,0,1,1
3,1,tool,0,0,tools,1,t_209.jpg,209,tbd,17.6354186242734,22.5227657761598,4.84795356267525,tool,0.717231375688243,0,2,1
4,1,tool,0,0,tools,1,t_327.jpg,327,tbd,25.0748628093997,32.2474176211817,7.14507300773306,tool,1.26302527915959,0,2,1
5,1,animal,0,0,tools,1,a_098.jpg,98,tbd,34.7995332068285,42.0054537335309,7.14732142437426,animal,0.574439794365389,0,1,1
6,1,animal,0,0,tools,1,a_074.jpg,74,tbd,44.5408756266306,48.6609220905448,4.09331955402805,animal,0.609281180210019,0,1,1
7,1,animal,0,0,tools,1,a_174.jpg,174,tbd,51.2130260469521,55.4498399354898,4.20038414331599,animal,0.461670123487238,0,1,1
8,1,tool,0,0,tools,1,t_313.jpg,313,tbd,58.0019490629265,62.3054816721733,4.26110581122773,tool,0.601377689455148,0,2,1
9,1,tool,0,0,tools,1,t_202.jpg,202,tbd,64.8575795499482,70.412140968212,5.52619032062115,tool,0.784045010929731,0,2,1
10,1,animal,0,0,tools,1,a_122.jpg,122,tbd,72.9642515858877,79.9199627996759,6.92933663599669,animal,0.645707612779916,0,1,1
11,1,animal,0,0,tools,1,a_095.jpg,95,tbd,82.4720681720974,88.8606516741647,6.34953436410629,animal,0.698451632897559,0,1,1
12,1,tool,0,0,tools,1,t_307.jpg,307,tbd,91.4127544610719,95.499446330894,4.0480093968824,tool,1.03193529185864,0,2,1
13,1,animal,0,0,tools,1,a_124.jpg,124,tbd,98.0515481752,104.406768196356,6.31885295297025,animal,0.653022772437907,0,1,1
14,1,animal,0,0,tools,1,a_039.jpg,39,tbd,106.942193093772,112.947120325899,5.962919632734,animal,0.586119651366971,0,1,1
15,1,animal,0,0,tools,1,a_082.jpg,82,tbd,115.482550769695,121.687647109608,6.15678369926551,animal,0.50998186866309,0,1,1
16,1,tool,0,0,tools,1,t_238.jpg,238,tbd,124.223066100682,130.228002204242,5.95894157659018,tool,0.656053665707077,0,2,1
17,1,tool,0,0,tools,1,t_249.jpg,249,tbd,132.763423776604,137.016912085355,4.21991775268202,tool,0.652415635494435,0,2,1
18,1,tool,0,0,tools,1,t_184.jpg,184,tbd,139.552335359471,145.206988014623,5.6121343491753,tool,0.651767420277793,0,2,1
19,1,animal,0,0,tools,1,a_069.jpg,69,tbd,147.759087081512,154.781517066391,6.98114399484555,animal,0.64169478858912,0,1,1
20,1,tool,0,0,tools,1,t_343.jpg,343,tbd,157.333625779253,164.222625376246,6.83676279703736,tool,0.956993215252623,0,2,1
21,1,animal,0,0,tools,1,a_052.jpg,52,tbd,166.758038382526,171.27841449593,4.48000828907492,animal,0.485506163814534,0,1,1
22,1,tool,0,0,tools,1,t_246.jpg,246,tbd,173.830527679507,180.352534868966,6.48800546818654,tool,0.739876091027327,0,2,1
23,1,tool,0,0,tools,1,t_281.jpg,281,tbd,182.904644399822,190.377462575982,7.43860142221179,tool,0.603401889225097,0,2,1
24,1,tool,0,0,tools,1,t_297.jpg,297,tbd,192.91288447331,200.302278268152,7.35600946434285,tool,0.635055669878966,0,2,1
25,1,animal,0,0,tools,1,a_009.jpg,9,tbd,202.854397229236,207.99194520218,5.10461664258466,animal,0.739775953553362,0,1,1
26,1,animal,0,0,tools,1,a_075.jpg,75,tbd,210.544044495969,217.282925903486,6.69660948993762,tool,1.00923282834174,0,2,0
27,1,animal,0,0,tools,1,a_016.jpg,16,tbd,219.835023366686,227.608084266557,7.73402595192292,animal,0.698508626151124,0,1,1
28,1,tool,0,0,tools,1,t_194.jpg,194,tbd,230.160169314821,234.447032858331,4.24674116538641,tool,0.737914470115356,0,2,1
29,1,tool,0,0,tools,1,t_196.jpg,196,tbd,236.999126684193,243.771361926649,6.72985145370164,tool,0.67897600264223,0,2,1
30,1,animal,0,0,tools,1,a_153.jpg,153,tbd,246.323473279637,252.862179426512,6.49115162036264,animal,0.836610943144478,0,1,1
31,1,animal,0,0,tools,1,a_146.jpg,146,tbd,255.397603189426,260.518478252007,5.06760568631311,animal,0.735690697242717,0,1,1
32,1,tool,0,0,tools,1,t_345.jpg,345,tbd,263.070564168648,268.808614520819,5.69944045183179,tool,0.640954279351718,0,2,1
33,1,animal,0,0,tools,1,a_150.jpg,150,tbd,271.360720233592,278.28308132823,6.87276730362755,animal,0.670913652865238,0,1,1
34,1,animal,0,0,tools,1,a_099.jpg,99,tbd,280.818500694653,286.740042511634,5.88726844443056,animal,1.30041566865384,0,1,1
35,1,tool,0,0,tools,1,t_316.jpg,316,tbd,289.292131729489,294.029359072826,4.69105472147823,tool,0.692379761972006,0,2,1
36,1,animal,0,0,tools,1,a_136.jpg,136,tbd,296.564783645276,304.554680934236,7.96331420060555,animal,0.602562991953164,0,1,1
37,1,animal,0,0,tools,1,a_044.jpg,44,tbd,307.090107400344,312.844833174167,5.69922216825239,animal,0.940798865224679,0,1,1
38,1,animal,0,0,tools,1,a_157.jpg,157,tbd,315.396932260668,320.451086909244,5.01873876641732,animal,0.679897896767216,0,1,1
39,1,tool,0,0,tools,1,t_239.jpg,239,tbd,323.003186054584,327.55692276226,4.51213971755361,tool,0.727413817366141,0,2,1
40,1,animal,0,0,tools,1,a_084.jpg,84,tbd,330.109024794241,336.447580361895,6.30984737927751,animal,0.697226637371386,0,1,1
41,1,animal,0,0,tools,1,a_025.jpg,25,tbd,338.99967823967,345.421626904792,6.36914424796601,animal,0.507511542297834,0,1,1
42,1,tool,0,0,tools,1,t_262.jpg,262,tbd,347.957040439096,355.680055227495,7.67680697452044,tool,0.706636786006129,0,2,1
43,1,tool,0,0,tools,1,t_215.jpg,215,tbd,358.232154318226,364.954343734949,6.66909848533632,tool,0.586602287453388,0,2,1
44,1,tool,0,0,tools,1,t_225.jpg,225,tbd,367.489763840913,372.777443622766,5.24212618662779,tool,0.639977632909904,0,2,1
45,1,animal,0,0,tools,1,a_177.jpg,177,tbd,375.329548166037,381.034241229378,5.66382097882851,animal,0.724594454107319,0,1,1
46,1,tool,0,0,tools,1,t_226.jpg,226,tbd,383.586332919298,389.824802589155,6.19048349075426,tool,0.959540405226107,0,2,1
47,1,tool,0,0,tools,1,t_260.jpg,260,tbd,392.376901546822,400.049868737739,7.61889981286979,tool,0.610899775563666,0,2,1
48,1,animal,0,0,tools,1,a_062.jpg,62,tbd,402.601978733553,409.057271685704,6.41909018594685,animal,0.809913699430581,0,1,1
49,1,animal,0,0,tools,1,a_079.jpg,79,tbd,411.609382530281,418.465007529762,6.80713319828903,animal,0.775589722413315,0,1,1
50,1,tool,0,0,tools,1,t_255.jpg,255,tbd,421.017112147258,428.523281823583,7.45160460735666,tool,0.664800395614293,0,2,1
51,1,tool,0,0,tools,1,t_230.jpg,230,tbd,431.075393630373,436.413109393152,5.29660068392412,tool,0.855383062454166,0,2,1
52,1,animal,0,0,tools,1,a_106.jpg,106,tbd,438.965203101336,446.988480632251,7.98214729783456,animal,0.715483237283479,0,1,1
53,1,animal,0,0,tools,1,a_000.jpg,0,tbd,449.540573378222,456.06259391406,6.48724650224454,animal,0.676822060988343,0,1,1
54,1,tool,0,0,tools,1,t_284.jpg,284,tbd,458.614701210908,463.135080531689,4.48750213436393,tool,0.681588337376525,0,2,1
55,1,tool,0,0,tools,1,t_204.jpg,204,tbd,465.687179810093,472.042407247443,6.32703618052652,tool,0.579712046471286,0,2,1
56,1,tool,0,0,tools,1,t_328.jpg,328,tbd,474.577822463889,481.283339749018,6.65997019306118,tool,0.662182302985457,0,2,1
57,1,animal,0,0,tools,1,a_094.jpg,94,tbd,483.835439476995,489.573490431414,5.69428489838459,animal,0.886483101307022,0,1,1
58,1,tool,0,0,tools,1,t_261.jpg,261,tbd,492.108907142327,497.21308734286,5.0803360824384,tool,0.574221834216587,0,2,1
59,1,tool,0,0,tools,1,t_181.jpg,181,tbd,499.748526376579,506.937765407226,7.13815536393126,tool,0.568011721093171,0,2,1
60,1,tool,0,0,tools,1,t_300.jpg,300,tbd,509.489867853781,513.710001208475,4.1883157634111,tool,1.10014225110444,0,2,1
