trial,phase,object,toShock,seenBefore,shockedCategory,responseSide,filename,num,name,onsetFixationCross,onsetStimulus,interTrialTime,response,reactionTime,wasShocked,buttonPressed,isResponseCorrect
1,3,tool,0,0,animals,2,t_306.jpg,306,tbd,0.0156107800680729,4.53605934961433,4.4375440199929,tool,0.866474855352863,0,1,1
2,3,animal,0,0,animals,2,a_120.jpg,120,tbd,7.10494589926338,13.9437381715611,6.80455314429345,animal,1.27922773220098,0,2,1
3,3,tool,0,0,animals,2,t_283.jpg,283,tbd,16.4959589205328,20.8160349223058,4.27975335563181,tool,1.54125231217995,0,1,1
4,3,animal,0,0,animals,2,a_116.jpg,116,tbd,23.3682543883306,31.0576381953597,7.64592466395144,animal,1.90813342341744,0,2,1
5,3,animal,0,0,animals,2,a_073.jpg,73,tbd,33.6099772961807,40.882308109165,7.22450819657581,animal,1.77287233410561,0,2,1
6,3,tool,0,0,animals,2,t_320.jpg,320,tbd,43.4347347711105,49.1225889847251,5.65668660435648,tool,1.79387898554387,0,1,1
7,3,animal,0,0,animals,2,a_055.jpg,55,tbd,51.6747760563412,59.5976209140654,7.8740238839357,animal,2.32141070480156,0,2,1
8,3,tool,0,0,animals,2,t_355.jpg,355,tbd,62.1333715117585,68.2047319037242,6.0421036873673,tool,1.81231910175302,0,1,1
9,3,animal,0,0,animals,2,a_037.jpg,37,tbd,70.7403949402928,76.0612804815455,5.28801038538278,animal,1.50035805971811,0,2,1
10,3,animal,0,0,animals,2,a_134.jpg,134,tbd,78.6135390774498,86.4696325298664,7.82121507102292,animal,2.18811220347607,0,2,1
11,3,tool,0,0,animals,2,t_249.jpg,249,tbd,88.9887218171957,96.7449009704637,7.71321687175028,tool,1.30769856857341,0,1,1
12,3,animal,0,0,animals,2,a_167.jpg,167,tbd,99.2804539943377,107.003274604366,7.6767896263025,animal,1.43377824855497,0,2,1
13,3,tool,0,0,animals,2,t_247.jpg,247,tbd,109.555492787444,115.510114635644,5.9306119251862,tool,2.34436968065074,0,1,1
14,3,tool,0,0,animals,2,t_199.jpg,199,tbd,118.04574271191,124.134028701296,6.04542713780101,tool,1.49178540868161,0,1,1
15,3,animal,0,0,animals,2,a_151.jpg,151,tbd,126.669572103068,130.906203315498,4.19029131875107,animal,1.11269577495614,0,2,1
16,3,animal,0,0,animals,2,a_056.jpg,56,tbd,133.441755056425,140.930922173727,7.44207011430299,animal,1.17062018500928,0,2,1
17,3,tool,0,0,animals,2,t_186.jpg,186,tbd,143.466646791745,147.736511780831,4.2374027396157,tool,0.97783175770337,0,1,1
18,3,animal,0,0,animals,2,a_147.jpg,147,tbd,150.272207532545,154.642348611798,4.32800590108976,animal,1.47170857299307,0,2,1
19,3,tool,0,0,animals,2,t_295.jpg,295,tbd,157.194561663088,163.332786038951,6.09954644707818,tool,1.4157688817595,0,1,1
20,3,animal,0,0,animals,2,a_098.jpg,98,tbd,165.884926283006,170.021404247431,4.10652453683535,animal,0.836390071808637,0,2,1
21,3,tool,0,0,animals,2,t_337.jpg,337,tbd,172.557143619339,178.128229139936,5.53508951929659,tool,1.48696345284179,0,1,1
22,3,tool,0,0,animals,2,t_349.jpg,349,tbd,180.663780880863,186.284885292853,5.58888305569219,tool,1.2556452441695,0,1,1
23,3,tool,0,0,animals,2,t_252.jpg,252,tbd,188.82041746884,196.776859497923,7.91622571012933,tool,0.931144679351746,0,1,1
24,3,animal,0,0,animals,2,a_070.jpg,70,tbd,199.329051701327,205.817572213402,6.4413158177714,tool,1.25981450078507,0,1,0
25,3,tool,0,0,animals,2,t_220.jpg,220,tbd,208.353047939726,213.790599858983,5.40100599457828,tool,0.952791842018542,0,1,1
26,3,tool,0,0,animals,2,t_280.jpg,280,tbd,216.309643280961,224.048994340772,7.70457095007915,tool,1.20212358706385,0,1,1
27,3,tool,0,0,animals,2,t_222.jpg,222,tbd,226.601404003671,231.438389566028,4.7859219156279,tool,1.1461117300687,0,1,1
28,3,animal,0,0,animals,2,a_099.jpg,99,tbd,233.990789606826,239.86213216583,5.83829378865195,animal,0.970732891892567,0,2,1
29,3,animal,0,0,animals,2,a_068.jpg,68,tbd,242.397667869921,247.034497361791,4.57994035353819,animal,1.05371902772731,0,2,1
30,3,animal,0,0,animals,2,a_113.jpg,113,tbd,249.570175152248,257.309713843039,7.69576967303703,animal,1.11072035750158,0,2,1
31,3,tool,0,0,animals,2,t_208.jpg,208,tbd,259.861943572639,264.882590036741,4.98241760405739,tool,1.12141307825323,0,1,1
32,3,tool,0,0,animals,2,t_291.jpg,291,tbd,267.434745676159,272.021809337908,4.5463632221427,tool,1.18842139367325,0,1,1
33,3,tool,0,0,animals,2,t_218.jpg,218,tbd,274.574045802978,279.811332601263,5.19580533396706,tool,1.21529848928685,0,1,1
34,3,animal,0,0,animals,2,a_079.jpg,79,tbd,282.363740981215,287.567865206395,5.1675483018127,animal,0.947097161565125,0,2,1
35,3,animal,0,0,animals,2,a_104.jpg,104,tbd,290.120024373917,295.891362506754,5.72870917839542,animal,1.49678858076777,0,2,1
36,3,tool,0,0,animals,2,t_356.jpg,356,tbd,298.443589991197,302.780291380821,4.30176115442252,tool,1.07900558994879,0,1,1
37,3,animal,0,0,animals,2,a_138.jpg,138,tbd,305.315883855311,311.070270090317,5.71714119617788,animal,1.33273848425824,0,2,1
38,3,animal,0,0,animals,2,a_086.jpg,86,tbd,313.622677187323,318.643152698754,4.97888873066266,animal,1.25183553341594,0,2,1
39,3,tool,0,0,animals,2,t_224.jpg,224,tbd,321.178886938874,326.015856143658,4.7893410075292,tool,1.22682833287672,0,1,1
40,3,animal,0,0,animals,2,a_097.jpg,97,tbd,328.568275749396,334.789890068623,6.17958450626697,animal,1.46818175202634,0,2,1
41,3,tool,0,0,animals,2,t_322.jpg,322,tbd,337.342136797268,343.146719291074,5.76449894469025,tool,1.70131821716086,0,1,1
42,3,animal,0,0,animals,2,a_128.jpg,128,tbd,345.698980773609,352.754604539173,7.01666208219674,animal,1.27818180975919,0,2,1
43,3,animal,0,0,animals,2,a_149.jpg,149,tbd,355.306786479001,360.844387086092,5.50828750145241,animal,1.26879224229788,0,2,1
44,3,tool,0,0,animals,2,t_185.jpg,185,tbd,363.396807333303,369.518331268922,6.09340764687538,tool,1.14925719507619,0,1,1
45,3,tool,0,0,animals,2,t_213.jpg,213,tbd,372.053879802482,378.425444311296,6.33756942628234,tool,1.24451471779548,0,1,1
46,3,tool,0,0,animals,2,t_234.jpg,234,tbd,380.961157703529,386.115257584793,5.11651690764307,tool,2.23778598215858,0,1,1
47,3,animal,0,0,animals,2,a_161.jpg,161,tbd,388.650800986565,395.289321723156,6.60640052812911,animal,1.09137704669047,0,2,1
48,3,animal,0,0,animals,2,a_162.jpg,162,tbd,397.824985080461,403.179059495229,5.3069918149004,animal,1.02248921409409,0,2,1
49,3,animal,0,0,animals,2,a_158.jpg,158,tbd,405.7147985464,412.136720965319,6.38146587496381,animal,0.9607076242537,0,2,1
50,3,tool,0,0,animals,2,t_271.jpg,271,tbd,414.688722330375,420.076243170243,5.33411867477872,tool,1.03454185853661,0,1,1
51,3,animal,0,0,animals,2,a_089.jpg,89,tbd,422.62864032441,428.26646698674,5.58800869981809,animal,1.35569040389919,0,2,1
52,3,tool,0,0,animals,2,t_299.jpg,299,tbd,430.802015841037,435.488857809565,4.65044683532027,tool,1.04926688132491,0,1,1
53,3,tool,0,0,animals,2,t_207.jpg,207,tbd,438.024569918851,445.180335385899,7.1170584904632,tool,1.7911360451194,0,1,1
54,3,tool,0,0,animals,2,t_273.jpg,273,tbd,447.699155254384,453.286866483569,5.54104157445116,tool,0.920345153272592,0,1,1
55,3,animal,0,0,animals,2,a_082.jpg,82,tbd,455.822492635415,459.942250594656,4.07061252101163,animal,0.732253273748938,0,2,1
56,3,animal,0,0,animals,2,a_071.jpg,71,tbd,462.511230157954,468.065573221798,5.51127106394814,animal,0.836316302362775,0,2,1
57,3,animal,0,0,animals,2,a_051.jpg,51,tbd,470.617826365178,478.574320032873,7.91611644994873,animal,0.967055003930909,0,2,1
58,3,tool,0,0,animals,2,t_264.jpg,264,tbd,481.126528593849,488.615887832446,7.4501132975698,tool,1.04159068941908,0,1,1
59,3,animal,0,0,animals,2,a_057.jpg,57,tbd,491.151428347588,499.107819058796,7.91349134133834,animal,0.808419905455139,0,2,1
60,3,tool,0,0,animals,2,t_248.jpg,248,tbd,501.659950963696,506.597132111305,4.90030779345793,tool,1.80246350383868,0,1,1
