trial,phase,object,toShock,seenBefore,shockedCategory,responseSide,filename,num,name,onsetFixationCross,onsetStimulus,interTrialTime,response,reactionTime,wasShocked,buttonPressed,isResponseCorrect
1,2,animal,1,0,animals,1,a_081.jpg,81,tbd,0.0261889228850123,9.09991868125553,8.96410249738057,1,0.636776240087329,1,1,1
2,2,animal,0,0,animals,1,a_047.jpg,47,tbd,13.870610623605,20.4260828235183,6.49764505231211,0,1.03911735404063,0,2,1
3,2,tool,0,0,animals,1,t_282.jpg,282,tbd,24.9631736609977,31.3515197938236,6.32453684110492,0,0.578105984601734,0,2,1
4,2,tool,0,0,animals,1,t_256.jpg,256,tbd,35.9054312938656,42.1602545171827,6.19454523366999,0,0.568861099053265,0,2,1
5,2,tool,0,0,animals,1,t_315.jpg,315,tbd,46.6975612097817,53.8032035279052,7.06121955802175,0,0.495332441960727,0,2,1
6,2,animal,1,0,animals,1,a_037.jpg,37,tbd,58.357049277131,65.445901723318,7.02720306596715,1,0.579119509384782,1,1,1
7,2,animal,0,0,animals,1,a_176.jpg,176,tbd,70.2000825130463,78.8904538993174,8.63700910731601,1,0.70311336152281,0,1,0
8,2,tool,0,0,animals,1,t_324.jpg,324,tbd,83.4275197194129,91.7174933292799,8.23242153005343,0,0.542652502823785,0,2,1
9,2,tool,0,0,animals,1,t_268.jpg,268,tbd,96.254670765396,105.195148956652,8.87843038364207,0,0.789499350248661,0,2,1
10,2,animal,0,0,animals,1,a_033.jpg,33,tbd,109.748995026614,117.521676171717,7.71058483957398,1,1.18449593762034,0,1,0
11,2,animal,1,0,animals,1,a_174.jpg,174,tbd,122.059044766304,128.313984737412,6.20941371875701,1,1.13556706653344,1,1,1
12,2,tool,0,0,animals,1,t_343.jpg,343,tbd,133.051359297684,142.69224790233,9.57609978424948,0,0.602898853492661,0,2,1
13,2,animal,1,0,animals,1,a_017.jpg,17,tbd,147.246243114387,153.851338578158,6.54192349232124,1,0.941285912193052,1,1,1
14,2,animal,0,0,animals,1,a_067.jpg,67,tbd,158.605550479248,167.078927171771,8.43645821531427,1,0.824225082744306,0,1,0
15,2,tool,0,0,animals,1,t_299.jpg,299,tbd,171.632830011949,178.087954919257,6.41743849526921,0,0.511661095973977,0,2,1
16,2,animal,1,0,animals,1,a_086.jpg,86,tbd,182.625123374773,190.598141805529,7.9341276840142,1,0.741975301486491,1,1,1
17,2,animal,0,0,animals,1,a_084.jpg,84,tbd,195.352121493979,203.591934607707,8.17463124841904,1,0.800700082038475,0,1,0
18,2,animal,1,0,animals,1,a_004.jpg,4,tbd,208.12926631769,215.234917616413,7.06077152784635,1,0.719187992869138,1,1,1
19,2,tool,0,0,animals,1,t_293.jpg,293,tbd,219.988958886116,226.360486601528,6.30905636592465,0,0.718084341357553,0,2,1
20,2,tool,0,0,animals,1,t_287.jpg,287,tbd,230.89783402756,240.388623139995,9.43659850309865,0,0.588544327655654,0,2,1
21,2,tool,0,0,animals,1,t_320.jpg,320,tbd,244.942630219273,254.583702926205,9.60635882500115,0,0.620991874540778,0,2,1
22,2,animal,1,0,animals,1,a_151.jpg,151,tbd,259.137569523251,266.226371613934,7.02734992301818,1,0.810822179701972,1,1,1
23,2,animal,0,0,animals,1,a_009.jpg,9,tbd,270.96387607216,280.471436453862,9.4604237594881,0,1.00134944351794,0,2,1
24,2,tool,0,0,animals,1,t_338.jpg,338,tbd,285.025317484013,293.715635307424,8.63981543848624,0,0.616633717975674,0,2,1
25,2,tool,0,0,animals,1,t_359.jpg,359,tbd,298.269440643953,307.893861716031,9.58715151416395,0,0.561008206402221,0,2,1
26,2,animal,1,0,animals,1,a_048.jpg,48,tbd,312.447736652205,320.370710693141,7.87287080472898,1,0.856846147638407,1,1,1
27,2,tool,0,0,animals,1,t_241.jpg,241,tbd,325.12471796486,332.046897543491,6.87629970320685,0,0.549962710686032,0,2,1
28,2,tool,0,0,animals,1,t_269.jpg,269,tbd,336.617427001139,343.089243314526,6.4177723751071,0,0.56204257900481,0,2,1
29,2,animal,1,0,animals,1,a_153.jpg,153,tbd,347.643075592853,355.749396587698,8.03724272238953,0,1.20050802550713,1,2,0
30,2,tool,0,0,animals,1,t_238.jpg,238,tbd,360.520271670127,367.325681005845,6.74978671050595,0,0.603610565990493,0,2,1
31,2,tool,0,0,animals,1,t_336.jpg,336,tbd,371.86285780049,380.436496149188,8.52769808542459,0,0.534299903966257,0,2,1
32,2,animal,0,0,animals,1,a_028.jpg,28,tbd,384.973566138848,394.631299461234,9.60002677770451,0,0.748099749499943,0,2,1
33,2,animal,1,0,animals,1,a_154.jpg,154,tbd,399.168430069938,408.50929320817,9.30530163803302,0,0.572831806904105,1,2,0
34,2,animal,0,0,animals,1,a_076.jpg,76,tbd,413.246640826644,420.86933601997,7.58691019864475,1,1.69419690932136,0,1,0
35,2,tool,0,0,animals,1,t_210.jpg,210,tbd,425.423249765162,433.412945810363,7.94781576237359,0,1.02304528857985,0,2,1
36,2,animal,1,0,animals,1,a_128.jpg,128,tbd,437.950070004355,445.139110337509,7.1524859127292,0,1.32136796921168,1,2,0
37,2,tool,0,0,animals,1,t_289.jpg,289,tbd,449.876472068353,457.265582514329,7.33646151401595,0,0.8113962965881,0,2,1
38,2,animal,1,0,animals,1,a_111.jpg,111,tbd,461.802910054748,469.542416545156,7.68464983583174,1,1.29306561039311,1,1,1
39,2,tool,0,0,animals,1,t_199.jpg,199,tbd,474.29645621118,480.551398427438,6.21349584772187,0,0.586494826592116,0,2,1
40,2,animal,1,0,animals,1,a_049.jpg,49,tbd,485.088574901347,492.244258401933,7.10411607817026,1,1.50416229552548,1,1,1
41,2,tool,0,0,animals,1,t_264.jpg,264,tbd,496.981596398336,505.088088345304,8.05955524769414,0,0.507798155315413,0,2,1
42,2,animal,1,0,animals,1,a_012.jpg,12,tbd,509.625260328913,518.382243707107,8.71070053036493,1,1.40321554791399,1,1,1
43,2,tool,0,0,animals,1,t_267.jpg,267,tbd,523.119565666725,530.525520509706,7.36358569897992,0,0.52540237517087,0,2,1
44,2,tool,0,0,animals,1,t_323.jpg,323,tbd,535.07935375024,544.320109185426,9.20004020295824,0,0.552340324361467,0,2,1
45,2,tool,0,0,animals,1,t_355.jpg,355,tbd,548.873937614925,557.614277055921,8.69445478013188,0,0.52971819462482,0,2,1
46,2,animal,1,0,animals,1,a_032.jpg,32,tbd,562.168074694793,569.674124090655,7.46811862259995,1,1.31143061530702,1,1,1
47,2,animal,0,0,animals,1,a_140.jpg,140,tbd,574.428140984446,584.16927841584,9.6834674537398,1,0.938901563067702,0,1,0
48,2,tool,0,0,animals,1,t_226.jpg,226,tbd,588.723111335638,594.811211656631,6.04863749776908,0,1.09434739850758,0,2,1
49,2,animal,0,0,animals,1,a_167.jpg,167,tbd,599.365152664357,607.72192108549,8.2964373689401,1,1.30317231274285,0,1,0
50,2,tool,0,0,animals,1,t_231.jpg,231,tbd,612.258997810599,618.747486285924,6.44145388756932,0,0.579199372571566,0,2,1
51,2,tool,0,0,animals,1,t_347.jpg,347,tbd,623.284636459507,629.789642502167,6.43296887354343,0,0.578324726342998,0,2,1
52,2,animal,1,0,animals,1,a_005.jpg,5,tbd,634.360323026326,641.966251761422,7.54421473196189,0,1.53727825559008,1,2,0
53,2,animal,1,0,animals,1,a_083.jpg,83,tbd,646.703731843735,656.094462004949,9.34736605858724,1,1.36861778895855,1,1,1
54,2,tool,0,0,animals,1,t_191.jpg,191,tbd,660.848631248193,668.604831069094,7.71261944541099,0,0.796710130046449,0,2,1
55,2,animal,1,0,animals,1,a_157.jpg,157,tbd,673.158641216658,681.715534275681,8.50700460114444,1,1.05156350251809,1,1,1
56,2,animal,1,0,animals,1,a_056.jpg,56,tbd,686.452862008542,692.524296261574,6.03150250788924,1,1.23424043956948,1,1,1
57,2,tool,0,0,animals,1,t_205.jpg,205,tbd,697.278255102204,707.136270864439,9.81594261982863,0,0.568832874312648,0,2,1
58,2,animal,1,0,animals,1,a_000.jpg,0,tbd,711.673435150392,721.080953259129,9.36647651443935,1,0.879728714755402,1,1,1
59,2,tool,0,0,animals,1,t_211.jpg,211,tbd,725.834990038532,732.723650492334,6.82491208367987,0,0.572505939442635,0,2,1
60,2,tool,0,0,animals,1,t_180.jpg,180,tbd,737.277664627798,745.534278518476,8.2024091011155,0,0.567408487110242,0,2,1
