trial,phase,object,toShock,seenBefore,shockedCategory,responseSide,filename,num,name,onsetFixationCross,onsetStimulus,interTrialTime,response,reactionTime,wasShocked,buttonPressed,isResponseCorrect
1,2,tool,0,0,animals,2,t_323.jpg,323,tbd,0.0264903939685155,7.18189643867026,7.02309653849626,1,1.55660428826809,0,1,0
2,2,animal,0,0,animals,2,a_144.jpg,144,tbd,11.7856215446801,18.3243901467165,6.49846650953313,1,2.55153480335355,0,1,0
3,2,animal,1,0,animals,2,a_126.jpg,126,tbd,22.8781535961986,30.0004280584839,7.08262569561642,0,2.12960169579401,1,2,0
4,2,animal,1,0,animals,2,a_110.jpg,110,tbd,34.754353734049,42.476919869723,7.68474986421823,1,1.90966026781314,1,1,1
5,2,tool,0,0,animals,2,t_331.jpg,331,tbd,47.2310472855141,56.4881743443309,9.21535477841872,1,2.9568726123905,0,1,0
6,2,animal,1,0,animals,2,a_130.jpg,130,tbd,61.0421456279407,67.9140062661775,6.83445715203947,0,2.49629678997849,1,2,0
7,2,tool,0,0,animals,2,t_341.jpg,341,tbd,72.6681756978186,78.9397597370555,6.23009118026592,0,3.46488657448208,0,2,1
8,2,tool,0,0,animals,2,t_208.jpg,208,tbd,83.4934930377598,91.6999213986509,8.1632156616772,0,3.23408709624835,0,2,1
9,2,tool,0,0,animals,2,t_246.jpg,246,tbd,96.253802556659,104.043068372981,7.74022200957339,0,1.64023186618908,0,2,1
10,2,animal,0,0,animals,2,a_138.jpg,138,tbd,108.580329856859,114.784995476443,6.15953269475368,0,1.69455066257285,0,2,1
11,2,animal,0,0,animals,2,a_007.jpg,7,tbd,119.338979268588,127.745442845818,8.36532946164122,1,1.68252001730241,0,1,0
12,2,tool,0,0,animals,2,t_227.jpg,227,tbd,132.299400017234,141.65664988421,9.31189012250784,0,1.7287230192868,0,2,1
13,2,tool,0,0,animals,2,t_190.jpg,190,tbd,146.21053328734,155.75123975018,9.49461216676734,0,1.42347402085159,0,2,1
14,2,animal,1,0,animals,2,a_084.jpg,84,tbd,160.305252087445,169.812707334952,9.47167759827035,0,1.22042969990309,1,2,0
15,2,tool,0,0,animals,2,t_340.jpg,340,tbd,174.550013015655,181.37188826322,6.7772360767501,0,1.43558356611504,0,2,1
16,2,tool,0,0,animals,2,t_300.jpg,300,tbd,185.909130823929,192.180510236355,6.23182606701152,0,1.15525349472978,0,2,1
17,2,animal,1,0,animals,2,a_095.jpg,95,tbd,196.734456502894,203.756490127761,6.99520485100141,0,1.92057733269496,1,2,0
18,2,animal,1,0,animals,2,a_013.jpg,13,tbd,208.493943024305,215.032422967831,6.51090554845896,0,2.45901301524873,1,2,0
19,2,animal,1,0,animals,2,a_093.jpg,93,tbd,219.786346719006,227.875865175671,8.04785041247689,0,2.00888663093076,1,2,0
20,2,tool,0,0,animals,2,t_302.jpg,302,tbd,232.61333058075,239.718698955516,7.06845131162713,0,2.21543237961635,0,2,1
21,2,tool,0,0,animals,2,t_252.jpg,252,tbd,244.27269782205,251.728572680247,7.41141470997868,0,1.18889824783219,0,2,1
22,2,animal,1,0,animals,2,a_164.jpg,164,tbd,256.282346713874,262.403765143309,6.07334575291901,1,1.44301459838039,1,1,1
23,2,tool,0,0,animals,2,t_342.jpg,342,tbd,267.141080445962,274.496640377723,7.31235180783252,0,1.86247422323345,0,2,1
24,2,tool,0,0,animals,2,t_289.jpg,289,tbd,279.033968253059,286.339669803893,7.25729906782191,0,0.966740563951021,0,2,1
25,2,animal,1,0,animals,2,a_046.jpg,46,tbd,290.893461798494,296.931533610959,6.00612563968107,1,1.37118834257956,1,1,1
26,2,animal,1,0,animals,2,a_032.jpg,32,tbd,301.685404441407,309.925330018828,8.20739649626969,1,1.45561069360053,1,1,1
27,2,animal,1,0,animals,2,a_161.jpg,161,tbd,314.679241261468,320.98398350385,6.25934682583294,1,1.21837862081748,1,1,1
28,2,tool,0,0,animals,2,t_269.jpg,269,tbd,325.721334728452,333.777812049034,8.02398901941198,0,0.999921859777601,0,2,1
29,2,tool,0,0,animals,2,t_312.jpg,312,tbd,338.331595063148,345.620683033754,7.25016590860374,0,0.740371993859526,0,2,1
30,2,tool,0,0,animals,2,t_272.jpg,272,tbd,350.174429805189,358.164026231725,7.93179201407949,0,1.10541018819151,0,2,1
31,2,animal,1,0,animals,2,a_160.jpg,160,tbd,362.701179308295,371.057739922894,8.30085955580167,1,1.51308228238656,1,1,1
32,2,tool,0,0,animals,2,t_311.jpg,311,tbd,375.811701520407,383.768099973069,7.91784927855974,0,1.14400222743882,0,2,1
33,2,animal,1,0,animals,2,a_026.jpg,26,tbd,388.321753732317,395.327079481843,6.95378000653354,1,1.5984318686908,1,1,1
34,2,animal,1,0,animals,2,a_158.jpg,158,tbd,400.064487796683,406.752906913446,6.65375122293543,0,2.7849386228188,1,2,0
35,2,tool,0,0,animals,2,t_206.jpg,206,tbd,411.507035291432,417.828689073773,6.29494903671297,0,1.02243048826176,0,2,1
36,2,tool,0,0,animals,2,t_294.jpg,294,tbd,422.365813605224,432.373489035028,9.96447589654056,0,0.770044164388764,0,2,1
37,2,animal,0,0,animals,2,a_055.jpg,55,tbd,436.910799911585,445.067018690361,8.12158632276632,1,2.35190018088201,0,1,0
38,2,animal,1,0,animals,2,a_047.jpg,47,tbd,449.604306794968,456.626504634455,6.97983561249069,1,2.10573091987021,1,1,1
39,2,animal,0,0,animals,2,a_119.jpg,119,tbd,461.363760601748,469.870319083481,8.46187166410891,0,2.93932602370865,0,2,1
40,2,tool,0,0,animals,2,t_284.jpg,284,tbd,474.407538230778,482.397359490221,7.94606187458801,0,0.888579216031303,0,2,1
41,2,animal,0,0,animals,2,a_088.jpg,88,tbd,486.934305694858,494.206497199895,7.22197065015117,1,1.4187906968782,0,1,0
42,2,tool,0,0,animals,2,t_234.jpg,234,tbd,498.743797171574,506.533106286672,7.74065933623382,0,0.895437742250124,0,2,1
43,2,animal,0,0,animals,2,a_050.jpg,50,tbd,511.087044855651,519.560431022045,8.44059174730643,1,0.946539279164199,0,1,0
44,2,tool,0,0,animals,2,t_288.jpg,288,tbd,524.114194150795,533.271403990458,9.11867145598855,0,0.873950323431245,0,2,1
45,2,animal,1,0,animals,2,a_075.jpg,75,tbd,537.808487788986,546.632239637603,8.78143240489672,1,1.63853936512032,1,1,1
46,2,tool,0,0,animals,2,t_332.jpg,332,tbd,551.386112392441,558.891965585213,7.47431403454971,0,1.13813508283897,0,2,1
47,2,tool,0,0,animals,2,t_180.jpg,180,tbd,563.429097814224,572.653053840628,9.19228269744616,0,0.897422109146646,0,2,1
48,2,tool,0,0,animals,2,t_212.jpg,212,tbd,577.20684583523,586.931188182941,9.67693039580818,0,1.07570113351926,0,2,1
49,2,animal,1,0,animals,2,a_107.jpg,107,tbd,591.484967348275,599.707941935742,8.17524288551844,1,1.30629245689329,1,1,1
50,2,tool,0,0,animals,2,t_183.jpg,183,tbd,604.44537077741,611.684403117105,7.19595719184055,0,1.84920138417124,0,2,1
51,2,tool,0,0,animals,2,t_257.jpg,257,tbd,616.238176830001,624.494497569378,8.20636633588431,0,1.11944219913744,0,2,1
52,2,animal,0,0,animals,2,a_049.jpg,49,tbd,629.031751034964,635.887027600287,6.81044705107579,1,1.47223197138896,0,1,0
53,2,tool,0,0,animals,2,t_305.jpg,305,tbd,640.424254124412,649.064264567435,8.58910479904801,0,0.879340540024486,0,2,1
54,2,animal,1,0,animals,2,a_131.jpg,131,tbd,653.618225587631,660.673787540002,7.02169987461508,1,1.24516869648119,1,1,1
55,2,tool,0,0,animals,2,t_348.jpg,348,tbd,665.427719309469,674.918548468212,9.46764963072856,0,0.781818545047827,0,2,1
56,2,animal,0,0,animals,2,a_113.jpg,113,tbd,679.472299409159,688.062227279812,8.54880194209474,1,1.48947065765924,0,1,0
57,2,tool,0,0,animals,2,t_293.jpg,293,tbd,692.6162155622,698.987845433994,6.33693777698426,0,0.779107720898992,0,2,1
58,2,animal,1,0,animals,2,a_073.jpg,73,tbd,703.5417012542,710.38038444539,6.78805205532179,1,2.37900585651778,1,1,1
59,2,animal,0,0,animals,2,a_064.jpg,64,tbd,715.134284141689,721.455932471591,6.27698746626057,0,2.53575288036836,0,2,1
60,2,animal,1,0,animals,2,a_006.jpg,6,tbd,725.993017232314,734.883189404287,8.84401056165912,1,1.23287986220953,1,1,1
