trial,phase,object,toShock,seenBefore,shockedCategory,responseSide,filename,num,name,onsetFixationCross,onsetStimulus,interTrialTime,response,reactionTime,wasShocked,buttonPressed,isResponseCorrect
1,1,animal,0,0,animals,2,a_035.jpg,35,tbd,0.018336233932132,7.89121213467297,7.80414865871407,animal,0.94136806239203,0,2,1
2,1,animal,0,0,animals,2,a_048.jpg,48,tbd,10.4601456725486,18.0159336175147,7.51136165087915,animal,1.13601046191707,0,2,1
3,1,tool,0,0,animals,2,t_243.jpg,243,tbd,20.5516654404919,27.5069381587837,6.90698210184103,tool,0.834295915583425,0,1,1
4,1,animal,0,0,animals,2,a_081.jpg,81,tbd,30.0760349501315,34.9296309045239,4.80681643841208,animal,0.991928528560493,0,2,1
5,1,tool,0,0,animals,2,t_242.jpg,242,tbd,37.4820392781121,43.6034934463842,6.07510035447998,tool,1.15323642941803,0,1,1
6,1,animal,0,0,animals,2,a_033.jpg,33,tbd,46.1557376042992,51.5931228417594,5.38342952163835,animal,1.01196508579051,0,2,1
7,1,tool,0,0,animals,2,t_247.jpg,247,tbd,54.145536667821,59.8832659563595,5.69702223980999,tool,1.80111793498145,0,1,1
8,1,animal,0,0,animals,2,a_053.jpg,53,tbd,62.4355688085489,69.9916720347774,7.50548230797634,animal,0.985062260736413,0,2,1
9,1,animal,0,0,animals,2,a_024.jpg,24,tbd,72.5437073950297,79.3991549452821,6.81039092999298,animal,0.909897347467449,0,2,1
10,1,animal,0,0,animals,2,a_000.jpg,0,tbd,81.9513461821307,87.2553350513872,5.26873325636835,animal,0.775980107676332,0,2,1
11,1,tool,0,0,animals,2,t_224.jpg,224,tbd,89.8077321992942,94.2109692366002,4.36502133826667,tool,0.906601487594344,0,1,1
12,1,tool,0,0,animals,2,t_282.jpg,282,tbd,96.7466747594099,103.752114082841,6.97698614750944,tool,1.05580650091997,0,1,1
13,1,tool,0,0,animals,2,t_245.jpg,245,tbd,106.287759949178,113.827008938305,7.50334230894226,tool,0.884220366751833,0,1,1
14,1,animal,0,0,animals,2,a_099.jpg,99,tbd,116.379228720456,121.599982053441,5.18226137693805,animal,0.88753803651889,0,2,1
15,1,tool,0,0,animals,2,t_240.jpg,240,tbd,124.135502512885,129.92344106415,5.74780893289782,tool,0.78434837158602,0,1,1
16,1,tool,0,0,animals,2,t_258.jpg,258,tbd,132.475624282655,140.498631155017,7.98941716525218,tool,0.913540561976333,0,1,1
17,1,tool,0,0,animals,2,t_271.jpg,271,tbd,143.050849974968,150.373281034053,7.29682114044661,,2.50273420849771,0,,0
18,1,animal,0,0,animals,2,a_174.jpg,174,tbd,153.00881657026,160.331503636479,7.27077236712085,,2.50190437435958,0,,0
19,1,tool,0,0,animals,2,t_237.jpg,237,tbd,162.850214949336,167.737493036646,4.85823205081077,tool,1.01161203604715,0,1,1
20,1,animal,0,0,animals,2,a_140.jpg,140,tbd,170.289562683881,174.459609574352,4.13845123322261,animal,1.66229426261816,0,2,1
21,1,tool,0,0,animals,2,t_325.jpg,325,tbd,176.995000779479,184.050502077714,6.96609452629674,,2.51263451861541,0,,0
22,1,tool,0,0,animals,2,t_199.jpg,199,tbd,186.569414497325,191.59015443323,4.98284372774804,tool,0.93777361721277,0,1,1
23,1,animal,0,0,animals,2,a_058.jpg,58,tbd,194.125533357271,199.663346007523,5.50775802139276,animal,0.693850022691549,0,2,1
24,1,animal,0,0,animals,2,a_077.jpg,77,tbd,202.198747981895,208.987576474694,6.73892918062714,animal,0.640951957229845,0,2,1
25,1,tool,0,0,animals,2,t_337.jpg,337,tbd,211.522955471381,216.777206122005,5.2155372116837,tool,0.867597622625908,0,1,1
26,1,animal,0,0,animals,2,a_029.jpg,29,tbd,219.329281987914,226.718595692738,7.36313794023564,animal,0.733555805200922,0,2,1
27,1,tool,0,0,animals,2,t_299.jpg,299,tbd,229.270665145352,234.258037599103,4.9447971496511,tool,0.8343657902833,0,1,1
28,1,tool,0,0,animals,2,t_343.jpg,343,tbd,236.810110216556,242.498033384116,5.66218904719012,tool,1.14165690255959,0,1,1
29,1,tool,0,0,animals,2,t_256.jpg,256,tbd,245.033432099065,250.537892185387,5.47153254413581,tool,0.886028649829314,0,1,1
30,1,animal,0,0,animals,2,a_068.jpg,68,tbd,253.089961006123,260.646074671272,7.51601444574975,animal,1.05325092190105,0,2,1
31,1,tool,0,0,animals,2,t_309.jpg,309,tbd,263.181465813343,267.368182302458,4.14816677499482,tool,0.880316423106706,0,1,1
32,1,tool,0,0,animals,2,t_339.jpg,339,tbd,269.920251578251,277.092729878529,7.12288453215511,tool,0.927143745964713,0,1,1
33,1,animal,0,0,animals,2,a_043.jpg,43,tbd,279.628105895407,284.131764891651,4.45917941874433,animal,0.791260294607127,0,2,1
34,1,animal,0,0,animals,2,a_147.jpg,147,tbd,286.667141343028,292.905521435951,6.19812341548551,animal,0.88690129367933,0,2,1
35,1,animal,0,0,animals,2,a_154.jpg,154,tbd,295.440918951579,299.927884605294,4.43680936508804,animal,0.778791884377824,0,2,1
36,1,tool,0,0,animals,2,t_328.jpg,328,tbd,302.463266829877,310.086103302981,7.5963180326333,tool,0.891927077560467,0,1,1
37,1,animal,0,0,animals,2,a_094.jpg,94,tbd,312.638170199314,319.326916058497,6.6493496547031,animal,0.67542176970619,0,2,1
38,1,tool,0,0,animals,2,t_321.jpg,321,tbd,321.862305669546,329.868789932521,7.96448999111429,tool,0.809830373580553,0,1,1
39,1,animal,0,0,animals,2,a_004.jpg,4,tbd,332.420861132717,339.159662839726,6.70988372049417,animal,0.746175508546912,0,2,1
40,1,animal,0,0,animals,2,a_078.jpg,78,tbd,341.711725142991,348.734081152018,6.97344719200564,animal,0.771283921553731,0,2,1
41,1,animal,0,0,animals,2,a_054.jpg,54,tbd,351.269467245966,356.44031392302,5.14319117745765,animal,0.953336703645618,0,2,1
42,1,tool,0,0,animals,2,t_281.jpg,281,tbd,358.975702406016,364.797088011551,5.77906964491907,tool,1.31185850321253,0,1,1
43,1,animal,0,0,animals,2,a_045.jpg,45,tbd,367.349151049489,372.820248981398,5.42944211755204,animal,0.748937294662937,0,2,1
44,1,tool,0,0,animals,2,t_248.jpg,248,tbd,375.372306742304,382.561456658834,7.1482049534155,tool,0.909093729879714,0,1,1
45,1,animal,0,0,animals,2,a_011.jpg,11,tbd,385.096850573745,389.216861966527,4.08035348571536,animal,0.706892568246985,0,2,1
46,1,tool,0,0,animals,2,t_263.jpg,263,tbd,391.752249115882,398.941388561962,7.15108236939397,tool,1.08971074329747,0,1,1
47,1,tool,0,0,animals,2,t_355.jpg,355,tbd,401.476786926027,409.499927049561,7.99020499275765,tool,0.975534414120375,0,1,1
48,1,animal,0,0,animals,2,a_017.jpg,17,tbd,412.05201577359,418.473883094606,6.38026090452008,animal,0.830880988090939,0,2,1
49,1,tool,0,0,animals,2,t_202.jpg,202,tbd,421.02595194687,428.582056249064,7.5151031062309,tool,0.969079453059749,0,1,1
50,1,tool,0,0,animals,2,t_195.jpg,195,tbd,431.134134701402,438.056409648954,6.88244207547503,tool,1.16399023545364,0,1,1
51,1,animal,0,0,animals,2,a_175.jpg,175,tbd,440.60847412471,447.497381021288,6.84673351813916,animal,0.720395902625569,0,2,1
52,1,tool,0,0,animals,2,t_304.jpg,304,tbd,450.032770539131,456.087663445078,6.00820425055226,tool,1.01843270897189,0,1,1
53,1,animal,0,0,animals,2,a_076.jpg,76,tbd,458.639734945448,463.276818618081,4.59566378852633,animal,0.756487335282145,0,2,1
54,1,animal,0,0,animals,2,a_062.jpg,62,tbd,465.828888307812,473.818699796335,7.94232774061515,animal,0.740980573253182,0,2,1
55,1,animal,0,0,animals,2,a_172.jpg,172,tbd,476.354085651784,482.59247002801,6.18559676955456,animal,0.802457118925304,0,2,1
56,1,tool,0,0,animals,2,t_350.jpg,350,tbd,485.144538641775,490.532225513824,5.35142087828709,tool,1.1330564383934,0,1,1
57,1,tool,0,0,animals,2,t_344.jpg,344,tbd,493.084307639525,497.804787525061,4.68401022339228,tool,0.818761836341764,0,1,1
58,1,tool,0,0,animals,2,t_303.jpg,303,tbd,500.356852828695,507.696132185823,7.29331842179631,tool,0.714667432246642,0,1,1
59,1,animal,0,0,animals,2,a_162.jpg,162,tbd,510.248196050261,517.537436277456,7.24210193366577,animal,0.755750600301326,0,2,1
60,1,animal,0,0,animals,2,a_060.jpg,60,tbd,520.089497525314,527.612255885223,7.49489713404026,animal,0.808276718804336,0,2,1
