trial,phase,object,toShock,seenBefore,shockedCategory,responseSide,filename,num,name,onsetFixationCross,onsetStimulus,interTrialTime,response,reactionTime,wasShocked,buttonPressed,isResponseCorrect
1,3,animal,0,0,animals,2,a_085.jpg,85,tbd,0.0313061871493119,7.95399157086149,7.84389593201132,animal,0.922146345043302,0,2,1
2,3,animal,0,0,animals,2,a_173.jpg,173,tbd,10.5395802626322,16.6609993335303,6.07554711085659,animal,0.875395533351821,0,2,1
3,3,tool,0,0,animals,2,t_278.jpg,278,tbd,19.2133268672865,26.8024670209363,7.54660003535595,tool,0.853197373132616,0,1,1
4,3,tool,0,0,animals,2,t_275.jpg,275,tbd,29.3381004708128,34.2252908003677,4.83733318259681,tool,1.02359056771979,0,1,1
5,3,tool,0,0,animals,2,t_213.jpg,213,tbd,36.7607539417229,43.7829569129169,7.0014334568827,tool,1.05819944024847,0,1,1
6,3,animal,0,0,animals,2,a_097.jpg,97,tbd,46.3184742579258,51.472335338131,5.10595038615471,animal,0.87905989278147,0,2,1
7,3,animal,0,0,animals,2,a_001.jpg,1,tbd,54.0246458731081,58.8283721978983,4.76428586485521,animal,1.01819906819969,0,2,1
8,3,animal,0,0,animals,2,a_120.jpg,120,tbd,61.3805477048388,69.4033603869543,7.9891856772733,animal,0.672444866053411,0,2,1
9,3,tool,0,0,animals,2,t_354.jpg,354,tbd,71.955721276805,77.8269426968061,5.83018999432852,tool,0.756149740308956,0,1,1
10,3,tool,0,0,animals,2,t_225.jpg,225,tbd,80.3624747954721,85.8500712996251,5.44029446637252,tool,1.2331948136939,0,1,1
11,3,animal,0,0,animals,2,a_104.jpg,104,tbd,88.4022326943718,96.0249188157668,7.58065912017041,animal,0.844720434862893,0,2,1
12,3,animal,0,0,animals,2,a_034.jpg,34,tbd,98.5771129251445,106.39994363238,7.77927172403695,animal,0.795959918472136,0,2,1
13,3,animal,0,0,animals,2,a_165.jpg,165,tbd,108.9521037442,114.473093227088,5.48536342177522,animal,0.707059191020562,0,2,1
14,3,tool,0,0,animals,2,t_221.jpg,221,tbd,117.025222869398,123.563533466597,6.48629977601765,tool,0.855853672896274,0,1,1
15,3,tool,0,0,animals,2,t_193.jpg,193,tbd,126.115909110105,130.76941947022,4.61860884161505,tool,0.913175159256753,0,1,1
16,3,animal,0,0,animals,2,a_118.jpg,118,tbd,133.321679971055,139.392915439104,6.04229935462885,animal,0.708949262803571,0,2,1
17,3,animal,0,0,animals,2,a_041.jpg,41,tbd,141.945291082612,146.899140359891,4.92589522986039,animal,1.26494243891648,0,2,1
18,3,tool,0,0,animals,2,t_232.jpg,232,tbd,149.451337676586,154.104913145231,4.60859057043153,tool,0.712294173481496,0,1,1
19,3,tool,0,0,animals,2,t_264.jpg,264,tbd,156.640418302436,161.027116148498,4.35425307295222,tool,0.674354502468759,0,1,1
20,3,tool,0,0,animals,2,t_267.jpg,267,tbd,163.579338482263,171.518920010813,7.89930595246281,tool,1.46885305612932,0,1,1
21,3,animal,0,0,animals,2,a_070.jpg,70,tbd,174.071091989705,180.292615907789,6.17124943131632,animal,0.676388903507132,0,2,1
22,3,animal,0,0,animals,2,a_116.jpg,116,tbd,182.844817393995,186.914468126819,4.02395182431675,animal,0.620766332849371,0,2,1
23,3,animal,0,0,animals,2,a_028.jpg,28,tbd,189.450076880356,194.08700958219,4.60577884923815,animal,0.573382076092003,0,2,1
24,3,tool,0,0,animals,2,t_239.jpg,239,tbd,196.622498061348,204.228546226907,7.57114580884494,tool,0.665120637437212,0,1,1
25,3,tool,0,0,animals,2,t_313.jpg,313,tbd,206.780688057022,211.284239358534,4.46552258255384,tool,0.715551524411012,0,1,1
26,3,animal,0,0,animals,2,a_171.jpg,171,tbd,213.836407167915,219.707672528156,5.82383787817165,animal,0.843409604491853,0,2,1
27,3,tool,0,0,animals,2,t_295.jpg,295,tbd,222.259811792416,226.779957109526,4.49672570880233,tool,1.11138509161106,0,1,1
28,3,tool,0,0,animals,2,t_188.jpg,188,tbd,229.33219259329,236.38770483225,7.01888081318229,tool,1.01187199437277,0,1,1
29,3,animal,0,0,animals,2,a_156.jpg,156,tbd,238.939881622118,245.611753870841,6.63067732938601,animal,0.822108210046963,0,2,1
30,3,animal,0,0,animals,2,a_142.jpg,142,tbd,248.147274423167,255.669655560808,7.4912571792565,animal,0.631450225800563,0,2,1
31,3,tool,0,0,animals,2,t_197.jpg,197,tbd,258.22199752749,266.228190856207,7.96313067611338,tool,0.667235221395231,0,1,1
32,3,tool,0,0,animals,2,t_201.jpg,201,tbd,268.780512937525,274.26815755143,5.45328643039716,tool,0.877506268529714,0,1,1
33,3,animal,0,0,animals,2,a_137.jpg,137,tbd,276.803608184249,281.407185112223,4.55770944654823,animal,0.793655461360231,0,2,1
34,3,tool,0,0,animals,2,t_203.jpg,203,tbd,283.959385315503,291.748671979384,7.75383953283357,tool,0.724473317519369,0,1,1
35,3,tool,0,0,animals,2,t_334.jpg,334,tbd,294.300990211921,299.555103996616,5.20671626940439,tool,0.788254981353248,0,1,1
36,3,tool,0,0,animals,2,t_320.jpg,320,tbd,302.090607550163,309.696452051106,7.56314738007271,tool,0.708119850682351,0,1,1
37,3,animal,0,0,animals,2,a_132.jpg,132,tbd,312.248764831205,317.619426734792,5.33571848614247,animal,0.708426470167069,0,2,1
38,3,animal,0,0,animals,2,a_014.jpg,14,tbd,320.171757796597,326.143138267438,5.93809479436294,animal,0.525975368117088,0,2,1
39,3,tool,0,0,animals,2,t_326.jpg,326,tbd,328.695303510964,334.833253734049,6.10637770350682,tool,1.21310867157968,0,1,1
40,3,animal,0,0,animals,2,a_071.jpg,71,tbd,337.368942349774,343.356779883784,5.94309907324254,animal,0.505816099180265,0,2,1
41,3,animal,0,0,animals,2,a_082.jpg,82,tbd,345.909140773635,350.679536341636,4.72044508949098,animal,0.490256122516712,0,2,1
42,3,tool,0,0,animals,2,t_317.jpg,317,tbd,353.231682020531,360.87083963802,7.6088848457643,tool,0.648223209673006,0,1,1
43,3,tool,0,0,animals,2,t_335.jpg,335,tbd,363.423212074211,369.194374190925,5.72463447984218,tool,0.526944298518856,0,1,1
44,3,animal,0,0,animals,2,a_124.jpg,124,tbd,371.746563810059,375.849760189897,4.07598602237969,animal,1.18774200310622,0,2,1
45,3,animal,0,0,animals,2,a_148.jpg,148,tbd,378.401933772447,385.540863189347,7.09540784704834,animal,0.549838125748693,0,2,1
46,3,tool,0,0,animals,2,t_274.jpg,274,tbd,388.093031319459,392.829860392888,4.70854774987955,tool,0.632132422081213,0,1,1
47,3,animal,0,0,animals,2,a_005.jpg,5,tbd,395.382226735177,399.451834169224,4.03031780891226,animal,0.576316450220929,0,2,1
48,3,tool,0,0,animals,2,t_283.jpg,283,tbd,401.987525992266,408.993028464947,6.96589987646936,tool,0.611388138562234,0,1,1
49,3,animal,0,0,animals,2,a_063.jpg,63,tbd,411.545219367008,418.116843080754,6.51891646834287,animal,0.632870104942413,0,2,1
50,3,animal,0,0,animals,2,a_021.jpg,21,tbd,420.669239571821,427.257692718215,6.54975725331365,animal,0.642272354105444,0,2,1
51,3,tool,0,0,animals,2,t_259.jpg,259,tbd,429.793199479078,436.448234276862,6.61142859998551,tool,0.752916444255334,0,1,1
52,3,tool,0,0,animals,2,t_358.jpg,358,tbd,438.983927382831,445.088510606447,6.05635090148263,tool,0.692932564229523,0,1,1
53,3,animal,0,0,animals,2,a_169.jpg,169,tbd,447.624276086492,452.561166146076,4.89320071007008,animal,0.793512735763215,0,2,1
54,3,animal,0,0,animals,2,a_153.jpg,153,tbd,455.113550770071,462.485819860101,7.31927233236178,animal,0.597110767881986,0,2,1
55,3,animal,0,0,animals,2,a_155.jpg,155,tbd,465.038178825562,471.276417354353,6.19230955005762,animal,0.518753452906367,0,2,1
56,3,tool,0,0,animals,2,t_184.jpg,184,tbd,473.828571693002,481.651203225866,7.78300789547026,tool,0.612441100663546,0,1,1
57,3,tool,0,0,animals,2,t_198.jpg,198,tbd,484.20357822791,488.740372726464,4.49754684313992,tool,0.621294898655833,0,1,1
58,3,tool,0,0,animals,2,t_261.jpg,261,tbd,491.275929842201,497.547320800968,6.23325133670575,tool,0.747780888614898,0,1,1
59,3,animal,0,0,animals,2,a_166.jpg,166,tbd,500.099702217646,505.954286002543,5.80568379393411,animal,0.666865738501201,0,2,1
60,3,tool,0,0,animals,2,t_235.jpg,235,tbd,508.506446114362,515.261555610554,6.71555740155785,tool,0.904879113653578,0,1,1
