trial,phase,object,toShock,seenBefore,shockedCategory,responseSide,filename,num,name,onsetFixationCross,onsetStimulus,interTrialTime,response,reactionTime,wasShocked,buttonPressed,isResponseCorrect
1,2,tool,0,0,animals,1,t_328.jpg,328,tbd,0.025904267239639,7.34815347029644,7.21380461789656,0,1.69747475247641,0,2,1
2,2,animal,1,0,animals,1,a_117.jpg,117,tbd,11.9186634144853,21.8265640806812,9.85104464119527,1,1.9155634295812,1,1,1
3,2,tool,0,0,animals,1,t_228.jpg,228,tbd,26.5807184645823,34.5371666720175,7.90945729712476,1,2.57240751866721,0,1,0
4,2,tool,0,0,animals,1,t_319.jpg,319,tbd,39.0908287937805,48.5650358678195,9.43848740794333,1,1.23598733694553,0,1,0
5,2,tool,0,0,animals,1,t_358.jpg,358,tbd,53.1188811285456,60.9417225664461,7.7829621784218,1,1.2607383593645,0,1,0
6,2,animal,1,0,animals,1,a_157.jpg,157,tbd,65.4955258110526,73.4185481107074,7.87921262079705,0,0.906325656512308,1,2,0
7,2,animal,0,0,animals,1,a_020.jpg,20,tbd,78.1724901688749,84.343962442566,6.12451887361016,0,2.43733050568608,0,2,1
8,2,animal,0,0,animals,1,a_159.jpg,159,tbd,88.8811821493446,94.9692668589732,6.05291554206661,0,2.2103693712379,0,2,1
9,2,tool,0,0,animals,1,t_265.jpg,265,tbd,99.5230778011896,107.963143089749,8.40171988819998,0,2.08294923473977,0,2,1
10,2,animal,1,0,animals,1,a_171.jpg,171,tbd,112.5169553149,119.80602268855,7.24910525581221,0,1.40847312924279,1,2,0
11,2,tool,0,0,animals,1,t_295.jpg,295,tbd,124.560058400968,132.916639905344,8.32498512351177,1,2.1983309511852,0,1,0
12,2,animal,1,0,animals,1,a_005.jpg,5,tbd,137.453830746087,145.043154289771,7.54450433365947,1,1.28823229669524,1,1,1
13,2,tool,0,0,animals,1,t_304.jpg,304,tbd,149.780432305943,158.720747285716,8.89085137577936,0,1.04307625812908,0,2,1
14,2,animal,1,0,animals,1,a_131.jpg,131,tbd,163.274726933877,172.665416867424,9.36593026967937,0,1.45288929922663,1,2,0
15,2,tool,0,0,animals,1,t_336.jpg,336,tbd,177.402832157636,185.976344169595,8.52370314430957,0,2.48449472232096,0,2,1
16,2,tool,0,0,animals,1,t_296.jpg,296,tbd,190.530107001751,198.002844473811,7.4396546696109,1,1.80135399494156,0,1,0
17,2,animal,1,0,animals,1,a_029.jpg,29,tbd,202.53985474146,211.363365229935,8.77662364364375,1,1.47729136334056,1,1,1
18,2,animal,0,0,animals,1,a_075.jpg,75,tbd,216.10083408268,223.606742158466,7.46100317541634,0,1.73036535565188,0,2,1
19,2,animal,0,0,animals,1,a_054.jpg,54,tbd,228.160582287453,234.749127089626,6.54669827433763,0,1.19834474273557,0,2,1
20,2,tool,0,0,animals,1,t_334.jpg,334,tbd,239.319629336205,248.026551828653,8.66153212062443,1,2.38441392949289,0,1,0
21,2,animal,1,0,animals,1,a_014.jpg,14,tbd,252.597053433765,259.569246139574,6.92479596833499,0,1.37607004134679,1,2,0
22,2,tool,0,0,animals,1,t_216.jpg,216,tbd,264.323217063778,272.296216414934,7.93569651651978,0,1.48554704970911,0,2,1
23,2,animal,1,0,animals,1,a_035.jpg,35,tbd,276.850039865766,284.8562245744,7.95043938423726,0,1.10495670077989,1,2,0
24,2,tool,0,0,animals,1,t_201.jpg,201,tbd,289.610360997212,298.267241649943,8.61758393152465,0,1.69147510720768,0,2,1
25,2,tool,0,0,animals,1,t_185.jpg,185,tbd,302.804379569619,310.393608496851,7.53851645499157,0,1.09342504003007,0,2,1
26,2,animal,1,0,animals,1,a_059.jpg,59,tbd,314.947540355686,322.937165260789,7.94759675916925,0,1.62132037563151,1,2,0
27,2,tool,0,0,animals,1,t_271.jpg,271,tbd,327.674466049056,336.865177535911,9.14854708489347,1,1.49279434921118,0,1,0
28,2,tool,0,0,animals,1,t_264.jpg,264,tbd,341.402288193219,350.025661151067,8.57504654313042,0,1.38881086828178,0,2,1
29,2,animal,0,0,animals,1,a_155.jpg,155,tbd,354.579628932081,363.203031076699,8.58777270587546,0,0.997879742964869,0,2,1
30,2,animal,1,0,animals,1,a_179.jpg,179,tbd,367.756945295178,375.346165883333,7.55813483878145,1,1.22017933329153,1,1,1
31,2,animal,1,0,animals,1,a_154.jpg,154,tbd,380.083609398113,387.889820150327,7.76125321798559,0,2.33496737159157,1,2,0
32,2,tool,0,0,animals,1,t_180.jpg,180,tbd,392.643738794932,399.682714358549,6.99317881306831,1,1.40163284085202,0,1,0
33,2,animal,1,0,animals,1,a_013.jpg,13,tbd,404.219857089231,411.675589579334,7.41183405743332,1,2.27702906729155,1,1,1
34,2,animal,1,0,animals,1,a_065.jpg,65,tbd,416.413051375937,423.935645624347,7.48469731495144,0,1.44433212314607,1,2,0
35,2,animal,1,0,animals,1,a_050.jpg,50,tbd,428.68969801492,437.379908355312,8.65146676086504,0,2.20773678873138,1,2,0
36,2,tool,0,0,animals,1,t_268.jpg,268,tbd,442.133882486853,448.338769442644,6.15333794143732,1,3.2991404510617,0,1,0
37,2,animal,1,0,animals,1,a_106.jpg,106,tbd,452.875882986556,462.133104707543,9.22705137066763,0,2.25324858515796,1,2,0
38,2,tool,0,0,animals,1,t_298.jpg,298,tbd,466.87058061643,473.35903307936,6.44352311187842,1,2.62372235058137,0,1,0
39,2,animal,1,0,animals,1,a_094.jpg,94,tbd,477.912822532416,487.153543464879,9.19821975507984,1,1.58166549796124,1,1,1
40,2,tool,0,0,animals,1,t_262.jpg,262,tbd,491.907504125603,501.66526965064,9.72837432014082,0,1.70540008309672,0,2,1
41,2,tool,0,0,animals,1,t_196.jpg,196,tbd,506.219123250443,514.575744525802,8.31517571462564,0,1.6114283057409,0,2,1
42,2,animal,1,0,animals,1,a_138.jpg,138,tbd,519.129541035,528.553566429415,9.38187157810841,1,2.97410792064238,1,1,1
43,2,tool,0,0,animals,1,t_349.jpg,349,tbd,533.30768938141,541.063730321147,7.72239926314879,0,1.81332538164361,0,2,1
44,2,tool,0,0,animals,1,t_188.jpg,188,tbd,545.617700026562,555.375275677226,9.71260816041806,0,1.53226416351617,0,2,1
45,2,tool,0,0,animals,1,t_338.jpg,338,tbd,559.945956251763,568.952945039874,8.95301163488716,0,2.11409921592895,0,2,1
46,2,animal,1,0,animals,1,a_086.jpg,86,tbd,573.506945214995,582.997659812966,9.43818980223356,1,1.26783555547854,1,1,1
47,2,tool,0,0,animals,1,t_205.jpg,205,tbd,587.751688789976,595.991609812501,8.20706068914811,0,1.41939379222504,0,2,1
48,2,animal,0,0,animals,1,a_080.jpg,80,tbd,600.545558990958,608.351691804874,7.76470672646334,1,1.48668597520646,0,1,0
49,2,tool,0,0,animals,1,t_197.jpg,197,tbd,612.905498256817,619.594133794565,6.65770662820001,0,1.56765424469677,0,2,1
50,2,tool,0,0,animals,1,t_282.jpg,282,tbd,624.147911380472,630.452814982344,6.27797662581761,0,0.991306946510122,0,2,1
51,2,tool,0,0,animals,1,t_269.jpg,269,tbd,635.006748444848,641.678510822203,6.61643236511488,0,1.91299114501726,0,2,1
52,2,animal,0,0,animals,1,a_076.jpg,76,tbd,646.232494639903,652.93778684277,6.66864821480233,1,1.1441224595028,0,1,0
53,2,animal,0,0,animals,1,a_041.jpg,41,tbd,657.491645574313,664.446979873482,6.90863227047523,1,1.23831778827252,0,1,0
54,2,tool,0,0,animals,1,t_347.jpg,347,tbd,669.000935787347,675.605986509784,6.54273566601036,0,1.34071299574089,0,2,1
55,2,animal,1,0,animals,1,a_051.jpg,51,tbd,680.159952045661,686.264607463768,6.05907451332039,1,1.64646557981223,1,1,1
56,2,tool,0,0,animals,1,t_199.jpg,199,tbd,691.002057713956,700.476115326075,9.44701393860131,0,1.26045066120287,0,2,1
57,2,animal,0,0,animals,1,a_161.jpg,161,tbd,705.01343862985,711.418398648786,6.36309131748171,1,2.13455946242584,0,1,0
58,2,animal,1,0,animals,1,a_028.jpg,28,tbd,715.972277265821,725.22950860882,9.21600231643037,1,1.99595020880815,1,1,1
59,2,animal,0,0,animals,1,a_001.jpg,1,tbd,729.983636051087,739.541423770897,9.51233228092956,1,2.18854889296608,0,1,0
60,2,tool,0,0,animals,1,t_186.jpg,186,tbd,744.095072742577,752.10131229668,7.9813754984617,0,1.10400925332351,0,2,1
