trial,phase,object,toShock,seenBefore,shockedCategory,responseSide,filename,num,name,onsetFixationCross,onsetStimulus,interTrialTime,response,reactionTime,wasShocked,buttonPressed,isResponseCorrect
1,3,tool,0,0,tools,1,t_341.jpg,341,tbd,0.0312635810132633,7.68749450626274,7.35549219634284,tool,1.86283694200029,0,2,1
2,3,tool,0,0,tools,1,t_185.jpg,185,tbd,10.2731130456409,17.3787524771433,7.07366084667465,tool,0.790024416544384,0,2,1
3,3,animal,0,0,tools,1,a_168.jpg,168,tbd,19.9309108359007,26.7363605843152,6.77684181090313,animal,0.573719946002257,0,1,1
4,3,tool,0,0,tools,1,t_310.jpg,310,tbd,29.2719353041848,35.8938539964042,6.57603816737756,tool,1.17260083503015,0,2,1
5,3,animal,0,0,tools,1,a_122.jpg,122,tbd,38.4460979915907,44.8178008286905,6.3224380990295,animal,0.710990652056353,0,1,1
6,3,tool,0,0,tools,1,t_275.jpg,275,tbd,47.370021730907,54.6758332691811,7.26398987406354,tool,0.41934825439057,0,2,1
7,3,animal,0,0,tools,1,a_076.jpg,76,tbd,57.211392914473,62.6655415023379,5.40109474722911,animal,0.666985394557287,0,1,1
8,3,animal,0,0,tools,1,a_124.jpg,124,tbd,65.2179150747434,72.9407352908424,7.6615322992154,animal,0.718189885369611,0,1,1
9,3,tool,0,0,tools,1,t_192.jpg,192,tbd,75.4929270061111,81.5312276586155,5.99212772781988,tool,0.641058724999766,0,2,1
10,3,animal,0,0,tools,1,a_130.jpg,130,tbd,84.0666259738555,89.0705764753575,4.95869408019175,animal,0.500050485941301,0,1,1
11,3,animal,0,0,tools,1,a_017.jpg,17,tbd,91.6227787749044,97.5441635704929,5.87879077367004,animal,0.677782640848818,0,1,1
12,3,tool,0,0,tools,1,t_274.jpg,274,tbd,100.096378699467,107.685879993956,7.53167337707241,tool,0.664527917695068,0,2,1
13,3,tool,0,0,tools,1,t_340.jpg,340,tbd,110.23801109018,116.276111603614,5.99384438537535,tool,0.841599036344178,0,2,1
14,3,animal,0,0,tools,1,a_107.jpg,107,tbd,118.828317431253,124.282475320453,5.41017016212452,animal,0.618577398231537,0,1,1
15,3,animal,0,0,tools,1,a_066.jpg,66,tbd,126.818050681793,133.740361441321,6.8721232237516,animal,0.740992589300276,0,1,1
16,3,tool,0,0,tools,1,t_294.jpg,294,tbd,136.292565665282,143.931842573082,7.58779023904671,tool,0.857012952167679,0,2,1
17,3,tool,0,0,tools,1,t_201.jpg,201,tbd,146.484234427422,150.637312271257,4.09242549765874,tool,0.825797992541993,0,2,1
18,3,animal,0,0,tools,1,a_098.jpg,98,tbd,153.189686164398,160.628965445642,7.40384425795109,animal,0.545534976446106,0,1,1
19,3,tool,0,0,tools,1,t_245.jpg,245,tbd,163.181178008731,171.154214721421,7.9427979995977,tool,0.556720954395132,0,2,1
20,3,animal,0,0,tools,1,a_154.jpg,154,tbd,173.70642503936,181.529332431419,7.77339708536254,animal,0.710995142356296,0,1,1
21,3,tool,0,0,tools,1,t_272.jpg,272,tbd,184.081567766742,188.551743837807,4.4361569581009,tool,0.578903676234859,0,2,1
22,3,animal,0,0,tools,1,a_016.jpg,16,tbd,191.1206102809,196.808491475268,5.63416627258689,animal,1.03850124274868,0,1,1
23,3,animal,0,0,tools,1,a_027.jpg,27,tbd,199.360690567457,207.25033054806,7.83387103239238,animal,0.773241921528552,0,1,1
24,3,animal,0,0,tools,1,a_001.jpg,1,tbd,209.785867100382,214.389475633491,4.55834125832725,animal,0.707289041450167,0,1,1
25,3,tool,0,0,tools,1,t_313.jpg,313,tbd,216.925008978456,222.512765470788,5.54298253064803,tool,0.802288066413894,0,2,1
26,3,animal,0,0,tools,1,a_099.jpg,99,tbd,225.048332172265,230.969683290606,5.87339526590414,animal,0.878684742052428,0,1,1
27,3,animal,0,0,tools,1,a_176.jpg,176,tbd,233.521915739308,239.560010479499,5.99454624211291,animal,0.495671481556201,0,1,1
28,3,tool,0,0,tools,1,t_334.jpg,334,tbd,242.112251588064,247.950206295053,5.80533785436566,tool,0.698879993111404,0,2,1
29,3,tool,0,0,tools,1,t_280.jpg,280,tbd,250.502422065499,256.090042245162,5.54026121786708,tool,0.646339638146856,0,2,1
30,3,tool,0,0,tools,1,t_196.jpg,196,tbd,258.642347500865,265.164277162245,6.48317897002255,tool,0.643480279464256,0,2,1
31,3,animal,0,0,tools,1,a_113.jpg,113,tbd,267.716512818304,273.23750721441,5.47116047085552,animal,0.674574963206396,0,1,1
32,3,tool,0,0,tools,1,t_247.jpg,247,tbd,275.789748002239,283.312208481188,7.47094764267617,tool,1.51833338251799,0,2,1
33,3,tool,0,0,tools,1,t_182.jpg,182,tbd,285.881275704822,291.902727149287,5.98095169561601,tool,1.26410416170074,0,2,1
34,3,animal,0,0,tools,1,a_103.jpg,103,tbd,294.471647796712,299.95914167066,5.43465243720173,animal,0.6400291634327,0,1,1
35,3,animal,0,0,tools,1,a_117.jpg,117,tbd,302.494855269083,306.915091510164,4.35510391858375,animal,1.06340636913137,0,1,1
36,3,animal,0,0,tools,1,a_126.jpg,126,tbd,309.467224210066,313.537052539495,4.03052169841192,animal,1.32971930709618,0,1,1
37,3,tool,0,0,tools,1,t_180.jpg,180,tbd,316.089221482529,323.044779703755,6.91098165219741,tool,0.483341760133953,0,2,1
38,3,tool,0,0,tools,1,t_306.jpg,306,tbd,325.613701634122,333.00293331819,7.34785354186636,tool,0.627560563456427,0,2,1
39,3,animal,0,0,tools,1,a_139.jpg,139,tbd,335.538445815335,340.408964496265,4.84003015986018,animal,0.920856353608087,0,1,1
40,3,tool,0,0,tools,1,t_305.jpg,305,tbd,342.9445209342,349.199476942092,6.21647035179031,tool,0.776716451265656,0,2,1
41,3,animal,0,0,tools,1,a_068.jpg,68,tbd,351.751704900494,359.124254479817,7.30216067258893,animal,1.02135856155292,0,1,1
42,3,animal,0,0,tools,1,a_100.jpg,100,tbd,361.659789749197,366.413510283209,4.72044547686661,animal,0.78236011647914,0,1,1
43,3,tool,0,0,tools,1,t_315.jpg,315,tbd,368.965761013845,374.720139697494,5.70839133543311,tool,0.841071105397077,0,2,1
44,3,tool,0,0,tools,1,t_197.jpg,197,tbd,377.272523533441,382.159709244538,4.8440740532305,tool,0.773750608334012,0,2,1
45,3,animal,0,0,tools,1,a_089.jpg,89,tbd,384.711902884221,391.950862520276,7.18446642945234,animal,0.686010152786366,0,1,1
46,3,tool,0,0,tools,1,t_191.jpg,191,tbd,394.486591834748,399.757389619876,5.22187410240585,tool,0.629846767460094,0,2,1
47,3,tool,0,0,tools,1,t_318.jpg,318,tbd,402.309612125771,408.064288772877,5.69939341320941,tool,0.661364501577737,0,2,1
48,3,animal,0,0,tools,1,a_160.jpg,160,tbd,410.616382984496,415.053216656099,4.39641190780532,animal,0.327580962246429,0,1,1
49,3,tool,0,0,tools,1,t_235.jpg,235,tbd,417.605435954637,422.375802991732,4.72000192496902,tool,0.628501281237732,0,2,1
50,3,tool,0,0,tools,1,t_210.jpg,210,tbd,424.928068796945,431.616728096099,6.64614727246211,tool,0.71878485007619,0,2,1
51,3,tool,0,0,tools,1,t_348.jpg,348,tbd,434.168943225074,439.206257936065,4.98477675556325,tool,0.634596863038951,0,2,1
52,3,animal,0,0,tools,1,a_061.jpg,61,tbd,441.775122454743,448.980861891634,7.15977985069688,animal,0.561370338967208,0,1,1
53,3,animal,0,0,tools,1,a_167.jpg,167,tbd,451.533100755049,457.437626079057,5.8428490225444,animal,0.872978212643375,0,1,1
54,3,tool,0,0,tools,1,t_231.jpg,231,tbd,459.973334224973,465.477506034102,5.43790203977669,tool,0.944416955975612,0,2,1
55,3,animal,0,0,tools,1,a_086.jpg,86,tbd,468.029855551331,474.301548189036,6.21524025141552,animal,0.781888314278149,0,1,1
56,3,animal,0,0,tools,1,a_115.jpg,115,tbd,476.837088910922,482.29138760309,5.3977177495199,animal,0.588188012273804,0,1,1
57,3,tool,0,0,tools,1,t_257.jpg,257,tbd,484.826918702905,489.363832815019,4.47684528901777,tool,0.761057814110245,0,2,1
58,3,tool,0,0,tools,1,t_222.jpg,222,tbd,491.916029020588,498.754847789527,6.79189862625857,tool,0.658427845593906,0,2,1
59,3,animal,0,0,tools,1,a_164.jpg,164,tbd,501.30706227703,505.643794981037,4.29530399998444,animal,0.597732144221482,0,1,1
60,3,animal,0,0,tools,1,a_169.jpg,169,tbd,508.195987658513,514.250767069334,6.01244080759475,animal,0.33810718687937,0,1,1
