trial,phase,object,toShock,seenBefore,shockedCategory,responseSide,filename,num,name,onsetFixationCross,onsetStimulus,interTrialTime,response,reactionTime,wasShocked,buttonPressed,isResponseCorrect
1,2,tool,0,0,animals,2,t_304.jpg,304,tbd,0.0258802146408925,6.480763722544,6.35181292699617,0,1.22982924677945,0,2,1
2,2,tool,0,0,animals,2,t_333.jpg,333,tbd,11.0511431281029,18.9910738688595,7.91666278827636,0,1.66296027196313,0,2,1
3,2,animal,0,0,animals,2,a_173.jpg,173,tbd,23.5449091868404,33.3693956680736,9.78446117930826,0,1.59817718900013,0,2,1
4,2,tool,0,0,animals,2,t_230.jpg,230,tbd,37.9398706522852,44.728409296371,6.74586534736274,0,0.930472093406934,0,2,1
5,2,tool,0,0,animals,2,t_255.jpg,255,tbd,49.2823985665445,57.9559714858406,8.63675978557567,0,1.01838681415484,0,2,1
6,2,animal,0,0,animals,2,a_093.jpg,93,tbd,62.4931302532095,72.1841167692419,9.64474651474963,0,0.907724694638091,0,2,1
7,2,animal,1,0,animals,2,a_162.jpg,162,tbd,76.721286762292,85.2947705496827,8.53149302516977,0,0.764510346036332,1,2,0
8,2,animal,0,0,animals,2,a_004.jpg,4,tbd,90.0487498129633,96.6873043814785,6.59533524272928,0,2.06638622143964,0,2,1
9,2,tool,0,0,animals,2,t_263.jpg,263,tbd,101.241150604406,107.462691338713,6.19344317171221,0,1.01050895212848,0,2,1
10,2,animal,1,0,animals,2,a_161.jpg,161,tbd,112.016534675037,120.756815079713,8.69015814558452,0,0.861706138907721,1,2,0
11,2,tool,0,0,animals,2,t_269.jpg,269,tbd,125.510807813811,132.516346243967,6.96863564328833,0,1.32559905745984,0,2,1
12,2,animal,1,0,animals,2,a_071.jpg,71,tbd,137.070154299579,145.47684275262,8.36427421691468,0,0.531547641918223,1,2,0
13,2,animal,1,0,animals,2,a_064.jpg,64,tbd,150.23082458177,157.353080584383,7.09313193238476,0,0.758867035949152,1,2,0
14,2,tool,0,0,animals,2,t_354.jpg,354,tbd,162.107108919926,169.662914825981,7.50908408056996,0,1.23530737899273,0,2,1
15,2,animal,0,0,animals,2,a_150.jpg,150,tbd,174.21693552806,183.507638643764,9.26830584106821,0,0.686041233818287,0,2,1
16,2,animal,1,0,animals,2,a_155.jpg,155,tbd,188.044756357215,197.468762186872,9.37241448406209,0,2.42747563847661,1,2,0
17,2,tool,0,0,animals,2,t_337.jpg,337,tbd,202.206226870077,208.444492585791,6.19860688400416,0,0.689053565067297,0,2,1
18,2,animal,1,0,animals,2,a_108.jpg,108,tbd,212.981609978508,221.938704785154,8.92059233111208,0,1.04532235405168,1,2,0
19,2,tool,0,0,animals,2,t_318.jpg,318,tbd,226.692773853882,234.649033149146,7.914095411454,0,0.836423339955218,0,2,1
20,2,tool,0,0,animals,2,t_202.jpg,202,tbd,239.202871995198,248.076557427888,8.82905556601384,0,1.04539259473859,0,2,1
21,2,tool,0,0,animals,2,t_205.jpg,205,tbd,252.63040493375,262.204532113015,9.52445199503844,0,0.981889239384145,0,2,1
22,2,animal,1,0,animals,2,a_063.jpg,63,tbd,266.758472310928,273.964055258926,7.14837526153772,1,1.29276746929281,1,1,1
23,2,animal,0,0,animals,2,a_035.jpg,35,tbd,278.701547845968,287.458318454955,8.72819355980116,0,1.00294348475927,0,2,1
24,2,animal,1,0,animals,2,a_048.jpg,48,tbd,292.012292971376,301.319529590445,9.27467666576314,0,0.919283617754445,1,2,0
25,2,tool,0,0,animals,2,t_239.jpg,239,tbd,306.073707708642,313.763096649936,7.6601231524353,0,0.830123808643293,0,2,1
26,2,animal,1,0,animals,2,a_098.jpg,98,tbd,318.316894442069,327.023689603223,8.67489699932571,0,1.20698338275361,1,2,0
27,2,animal,0,0,animals,2,a_144.jpg,144,tbd,331.761144664418,339.650583576026,7.84641739303541,0,1.23652745012532,0,2,1
28,2,animal,1,0,animals,2,a_179.jpg,179,tbd,344.187894691921,351.560210751924,7.3300247894573,0,1.45231101386889,1,2,0
29,2,tool,0,0,animals,2,t_198.jpg,198,tbd,356.297691151084,363.503232403697,7.16881222634983,0,0.80267477403595,0,2,1
30,2,animal,1,0,animals,2,a_015.jpg,15,tbd,368.057190562698,377.214330528655,9.13081311226452,1,1.48907447690726,1,1,1
31,2,tool,0,0,animals,2,t_265.jpg,265,tbd,381.968458933124,388.189888372825,6.17926128298125,0,0.78105282994602,0,2,1
32,2,animal,1,0,animals,2,a_047.jpg,47,tbd,392.743837230547,399.532574408815,6.76227338068785,0,1.30360185490008,1,2,0
33,2,tool,0,0,animals,2,t_305.jpg,305,tbd,404.286562973374,412.076067026005,7.75976191325354,0,0.656533730092633,0,2,1
34,2,animal,0,0,animals,2,a_089.jpg,89,tbd,416.629877968222,423.268454346631,6.59605799935574,1,1.08253324065208,0,1,0
35,2,tool,0,0,animals,2,t_359.jpg,359,tbd,427.822252780232,435.194917798541,7.33246709533871,0,0.781464972797039,0,2,1
36,2,tool,0,0,animals,2,t_358.jpg,358,tbd,439.74858473131,446.603858123142,6.81602609022821,0,1.06992391454969,0,2,1
37,2,animal,1,0,animals,2,a_095.jpg,95,tbd,451.157823979754,460.231729050906,9.02893084191489,1,0.96970713061728,1,1,1
38,2,tool,0,0,animals,2,t_256.jpg,256,tbd,464.98572050207,473.158697979185,8.13927704864966,0,0.759004951455609,0,2,1
39,2,tool,0,0,animals,2,t_226.jpg,226,tbd,477.712694626234,485.802551710489,8.05016264147072,0,0.913591235404965,0,2,1
40,2,animal,0,0,animals,2,a_147.jpg,147,tbd,490.356242377554,499.163227060273,8.76171790385868,1,1.19938071027082,0,1,0
41,2,tool,0,0,animals,2,t_341.jpg,341,tbd,503.717080339342,512.407315696965,8.65140025202158,0,1.01874988474447,0,2,1
42,2,tool,0,0,animals,2,t_220.jpg,220,tbd,516.961085905997,526.168448926231,9.16819015895539,0,0.772079341476456,0,2,1
43,2,tool,0,0,animals,2,t_349.jpg,349,tbd,530.705565036013,539.962777776455,9.21662274603942,0,0.673225996655674,0,2,1
44,2,animal,1,0,animals,2,a_017.jpg,17,tbd,544.51681868476,553.674016062057,9.11432960588997,0,2.24851134544315,1,2,0
45,2,animal,0,0,animals,2,a_123.jpg,123,tbd,558.428048887871,566.51778441404,8.0557723843535,1,1.34817390147873,0,1,0
46,2,tool,0,0,animals,2,t_282.jpg,282,tbd,571.071648277322,579.828411830167,8.71227820334968,0,0.820027110628871,0,2,1
47,2,tool,0,0,animals,2,t_290.jpg,290,tbd,584.36568509948,590.603941193181,6.2031067800683,0,0.692834695083548,0,2,1
48,2,animal,1,0,animals,2,a_143.jpg,143,tbd,595.141102526419,602.697095420242,7.50922375240391,1,1.22210148814065,1,1,1
49,2,animal,1,0,animals,2,a_003.jpg,3,tbd,607.43434296671,616.891757705259,9.41794519973782,0,1.58694060328708,1,2,0
50,2,animal,1,0,animals,2,a_152.jpg,152,tbd,621.62922880314,629.118325299412,7.44349791097885,1,1.04179075488264,1,1,1
51,2,tool,0,0,animals,2,t_332.jpg,332,tbd,633.872471023503,641.295037720884,7.38651568701598,0,0.986469637869959,0,2,1
52,2,animal,1,0,animals,2,a_091.jpg,91,tbd,645.832168263685,655.70652370915,9.81742485975341,1,1.21067438658883,1,1,1
53,2,animal,0,0,animals,2,a_159.jpg,159,tbd,660.460677772317,668.200199962442,7.69839247322062,1,1.02428959783538,0,1,0
54,2,tool,0,0,animals,2,t_325.jpg,325,tbd,672.75396215313,681.744273749162,8.94411220635211,0,1.26264832633115,0,2,1
55,2,tool,0,0,animals,2,t_259.jpg,259,tbd,686.281589996795,695.605667382149,9.27865175931019,0,0.663739013474697,0,2,1
56,2,tool,0,0,animals,2,t_201.jpg,201,tbd,700.17616642139,706.214248100086,6.00693127714867,0,0.84752393456256,0,2,1
57,2,animal,1,0,animals,2,a_171.jpg,171,tbd,710.768044609284,717.956918291829,7.14448886824663,1,1.10125190296185,1,1,1
58,2,animal,1,0,animals,2,a_062.jpg,62,tbd,722.694385540905,730.517104137785,7.7928354722713,1,2.17554762780583,1,1,1
59,2,tool,0,0,animals,2,t_291.jpg,291,tbd,735.271268464432,744.044874707964,8.73382153645482,0,0.824201780937983,0,2,1
60,2,tool,0,0,animals,2,t_227.jpg,227,tbd,748.59871996869,758.389675341477,9.74304097149489,0,0.781857550890891,0,2,1
