trial,phase,object,toShock,seenBefore,shockedCategory,responseSide,filename,num,name,onsetFixationCross,onsetStimulus,interTrialTime,response,reactionTime,wasShocked,buttonPressed,isResponseCorrect
1,2,tool,0,0,animals,1,t_243.jpg,243,tbd,0.0259892664525978,6.46457408170136,6.33528902215495,1,0.899100187305521,0,1,0
2,2,tool,0,0,animals,1,t_290.jpg,290,tbd,11.0349410570034,20.2926143868899,9.21497059076068,0,0.715696248902532,0,2,1
3,2,animal,1,0,animals,1,a_130.jpg,130,tbd,24.8464717073439,34.2872923854356,9.39835232436,1,0.636681863172271,1,1,1
4,2,animal,0,0,animals,1,a_139.jpg,139,tbd,39.0414783337856,48.2656134003009,9.19267067478143,1,0.892032731024301,0,1,0
5,2,animal,1,0,animals,1,a_169.jpg,169,tbd,52.8195031152682,62.2270078012461,9.37401299586269,0,1.31424612939554,1,2,0
6,2,tool,0,0,animals,1,t_214.jpg,214,tbd,66.9811039430278,74.7373977798597,7.70846215207911,0,0.869158677040105,0,2,1
7,2,animal,1,0,animals,1,a_123.jpg,123,tbd,79.2579172980331,87.4311387751477,8.13814153652759,1,1.01425241585457,1,1,1
8,2,animal,0,0,animals,1,a_074.jpg,74,tbd,92.1685167825435,100.775295831441,8.57691831132709,1,0.956816945083119,0,1,0
9,2,animal,1,0,animals,1,a_128.jpg,128,tbd,105.312593782697,112.385013479587,7.02326185601497,1,1.0942793706563,1,1,1
10,2,tool,0,0,animals,1,t_224.jpg,224,tbd,117.12238924182,123.6610426308,6.49255312093332,0,0.869813302784678,0,2,1
11,2,animal,0,0,animals,1,a_057.jpg,57,tbd,128.181444438222,137.939394885521,9.70698575009544,1,0.991419737041724,0,1,0
12,2,tool,0,0,animals,1,t_212.jpg,212,tbd,142.476556843973,149.165071096915,6.65349491585476,0,0.857879292652797,0,2,1
13,2,tool,0,0,animals,1,t_318.jpg,318,tbd,153.685767341591,163.710543691159,9.97011837428995,0,0.660585806066592,0,2,1
14,2,animal,1,0,animals,1,a_115.jpg,115,tbd,168.264396521285,174.51924992489,6.18932367114572,0,1.42339093992268,1,2,0
15,2,animal,1,0,animals,1,a_022.jpg,22,tbd,179.273483342427,187.963834781192,8.64361108897719,1,1.81220495436719,1,1,1
16,2,animal,1,0,animals,1,a_045.jpg,45,tbd,192.717862285095,201.758478589094,8.99430628082876,0,1.77436142820079,1,2,0
17,2,tool,0,0,animals,1,t_230.jpg,230,tbd,206.49585820018,216.170293990406,9.6304696436497,0,0.728250245103482,0,2,1
18,2,tool,0,0,animals,1,t_239.jpg,239,tbd,220.72422411833,227.729846330318,6.96712953776475,0,0.610236394362801,0,2,1
19,2,animal,0,0,animals,1,a_117.jpg,117,tbd,232.283738611186,239.372759693919,7.03200781710547,1,0.927884155036736,0,1,0
20,2,tool,0,0,animals,1,t_281.jpg,281,tbd,243.926666728725,251.599482151849,7.61936400793046,0,0.743723275547381,0,2,1
21,2,animal,1,0,animals,1,a_011.jpg,11,tbd,256.153333378285,264.276559858907,8.07713503098747,1,1.60828406369183,1,1,1
22,2,tool,0,0,animals,1,t_292.jpg,292,tbd,269.030600513059,276.786747131264,7.69930944198807,0,0.580654110377509,0,2,1
23,2,tool,0,0,animals,1,t_265.jpg,265,tbd,281.340742048211,288.246281574007,6.87234143138739,0,0.725660608524777,0,2,1
24,2,animal,0,0,animals,1,a_049.jpg,49,tbd,292.800090142324,299.272017570918,6.43373107387342,0,1.0184643439643,0,2,1
25,2,tool,0,0,animals,1,t_328.jpg,328,tbd,303.80924335618,313.58369768505,9.7278399277193,0,0.849420476020896,0,2,1
26,2,animal,1,0,animals,1,a_150.jpg,150,tbd,318.137614021249,325.076444200875,6.90018643286498,1,1.06123985448176,1,1,1
27,2,tool,0,0,animals,1,t_195.jpg,195,tbd,329.830579151923,337.820217077495,7.94915094884312,0,0.613048302200696,0,2,1
28,2,animal,1,0,animals,1,a_068.jpg,68,tbd,342.357555762444,350.580736313421,8.16919812313803,1,0.788799758671303,1,1,1
29,2,tool,0,0,animals,1,t_334.jpg,334,tbd,355.301581893591,363.274481478298,7.9279832084245,0,0.796647569894049,0,2,1
30,2,animal,1,0,animals,1,a_047.jpg,47,tbd,367.811813748494,376.435474828764,8.60091804141785,1,0.853456960581752,1,1,1
31,2,tool,0,0,animals,1,t_347.jpg,347,tbd,381.172858288703,388.445165599087,7.23073814316219,0,0.672484214308497,0,2,1
32,2,tool,0,0,animals,1,t_288.jpg,288,tbd,392.999226267273,401.889733135551,8.85584242633695,0,0.602542537260888,0,2,1
33,2,animal,1,0,animals,1,a_067.jpg,67,tbd,406.44358692789,413.132144159692,6.63815041186443,1,0.72667157390606,1,1,1
34,2,animal,0,0,animals,1,a_015.jpg,15,tbd,417.88636057813,425.258999146459,7.32372801123229,1,1.89144834684703,0,1,0
35,2,animal,1,0,animals,1,a_026.jpg,26,tbd,429.812745170913,438.953560588907,9.10686496757222,1,1.00847881565096,1,1,1
36,2,tool,0,0,animals,1,t_187.jpg,187,tbd,443.707573018135,452.014257641838,8.26361392741473,0,0.674372397434126,0,2,1
37,2,tool,0,0,animals,1,t_280.jpg,280,tbd,456.568104057211,462.989946682743,6.39122693805101,0,0.647211362707822,0,2,1
38,2,tool,0,0,animals,1,t_188.jpg,188,tbd,467.543774174586,474.332638929742,6.73141346568239,0,0.604038778856193,0,2,1
39,2,animal,1,0,animals,1,a_024.jpg,24,tbd,478.886475402243,488.644236614273,9.69873578319495,1,1.15806095851258,1,1,1
40,2,animal,1,0,animals,1,a_106.jpg,106,tbd,493.381756708492,499.653470012567,6.23882257883817,1,1.26946825311461,1,1,1
41,2,tool,0,0,animals,1,t_201.jpg,201,tbd,504.407505534913,510.929321475065,6.46657423087315,0,0.59805060510007,0,2,1
42,2,animal,1,0,animals,1,a_144.jpg,144,tbd,515.483276620533,522.238615621089,6.7112214294571,1,1.72035849281019,1,1,1
43,2,animal,0,0,animals,1,a_131.jpg,131,tbd,526.992745440333,536.700580614488,9.67204563430148,1,1.72206289320275,0,1,0
44,2,animal,0,0,animals,1,a_107.jpg,107,tbd,541.254472253881,549.094082531858,7.80281762504853,1,1.19315030963662,0,1,0
45,2,tool,0,0,animals,1,t_351.jpg,351,tbd,553.63128137515,561.754474178308,8.07690668643869,0,0.806331925459745,0,2,1
46,2,animal,1,0,animals,1,a_135.jpg,135,tbd,566.291730754394,574.698499988715,8.37190439575773,1,1.24390962417965,1,1,1
47,2,tool,0,0,animals,1,t_355.jpg,355,tbd,579.435870619145,585.957640052324,6.48446016785046,0,0.571074315315855,0,2,1
48,2,tool,0,0,animals,1,t_263.jpg,263,tbd,590.494970398093,599.485543915675,8.94530408970057,0,0.660813209129628,0,2,1
49,2,tool,0,0,animals,1,t_260.jpg,260,tbd,604.022711968142,611.245094202863,7.16829234259188,0,0.80504480487798,0,2,1
50,2,animal,1,0,animals,1,a_101.jpg,101,tbd,615.782411398384,622.187501891332,6.36211757599384,1,1.2771024529975,1,1,1
51,2,tool,0,0,animals,1,t_271.jpg,271,tbd,626.92494532923,635.948778068343,8.988063544262,0,0.612181027330735,0,2,1
52,2,tool,0,0,animals,1,t_217.jpg,217,tbd,640.486069284107,649.076333546353,8.55320278452357,0,0.674251158563493,0,2,1
53,2,tool,0,0,animals,1,t_312.jpg,312,tbd,653.613534955544,662.454005452162,8.81290455068262,0,0.785555175612899,0,2,1
54,2,animal,1,0,animals,1,a_071.jpg,71,tbd,666.991195314797,673.646367916608,6.61192395175467,1,0.912383220407719,1,1,1
55,2,tool,0,0,animals,1,t_251.jpg,251,tbd,678.38387357763,688.14177591427,9.71561094209399,0,0.627896535512264,0,2,1
56,2,tool,0,0,animals,1,t_267.jpg,267,tbd,692.678965135428,699.08393535172,6.3554906407249,0,0.642342563689454,0,2,1
57,2,tool,0,0,animals,1,t_326.jpg,326,tbd,703.621332410939,712.378208066048,8.70904937750459,0,0.605718482442171,0,2,1
58,2,animal,1,0,animals,1,a_164.jpg,164,tbd,716.932191757174,726.05611263502,9.07684536274528,0,1.34345411242975,1,2,0
59,2,animal,0,0,animals,1,a_132.jpg,132,tbd,730.810330015671,738.683326527327,7.848346756086,0,2.36588939717512,0,2,1
60,2,animal,0,0,animals,1,a_043.jpg,43,tbd,743.237183527044,753.111704505216,9.83221283203695,1,1.68081826395792,0,1,0
