trial,phase,object,toShock,seenBefore,shockedCategory,responseSide,filename,num,name,onsetFixationCross,onsetStimulus,interTrialTime,response,reactionTime,wasShocked,buttonPressed,isResponseCorrect
1,1,animal,0,0,animals,2,a_027.jpg,27,tbd,0.0262294977219426,7.21520304712067,7.02655996453162,animal,0.779531080530433,0,2,1
2,1,animal,0,0,animals,2,a_108.jpg,108,tbd,9.78403048123164,16.7899006234984,6.96118115722739,animal,0.795275455110641,0,2,1
3,1,tool,0,0,animals,2,t_340.jpg,340,tbd,19.342119615535,25.9473834993096,6.5655359343893,tool,0.678202648925435,0,1,1
4,1,tool,0,0,animals,2,t_274.jpg,274,tbd,28.4829311846743,32.9531994368972,4.41956545060502,tool,0.651720295274572,0,1,1
5,1,animal,0,0,animals,2,a_017.jpg,17,tbd,35.505410731228,41.3600950418913,5.81028930250265,animal,0.546206236056605,0,2,1
6,1,animal,0,0,animals,2,a_091.jpg,91,tbd,43.8956574811918,51.4016725969204,7.45748318771207,animal,0.67403915221621,0,2,1
7,1,animal,0,0,animals,2,a_049.jpg,49,tbd,53.9539018525657,59.3748752788015,5.35801537832929,animal,0.649839489119586,0,2,1
8,1,tool,0,0,animals,2,t_195.jpg,195,tbd,61.9271244201864,66.2471806006106,4.28010754273788,tool,0.727330691282987,0,1,1
9,1,animal,0,0,animals,2,a_060.jpg,60,tbd,68.7827638878643,74.1204083641833,5.29148234360291,animal,0.703467802821251,0,2,1
10,1,tool,0,0,animals,2,t_315.jpg,315,tbd,76.6559063351961,83.2945926960156,6.60585925701065,tool,0.739233269116994,0,1,1
11,1,tool,0,0,animals,2,t_297.jpg,297,tbd,85.8134145492895,91.4846484145774,5.6145251333928,tool,0.552984066149293,0,1,1
12,1,animal,0,0,animals,2,a_147.jpg,147,tbd,94.0368917826827,98.5569722108803,4.45477839223777,animal,0.735034491255647,0,2,1
13,1,tool,0,0,animals,2,t_270.jpg,270,tbd,101.126003634199,108.93220169874,7.74256598918488,tool,0.685239314380851,0,1,1
14,1,tool,0,0,animals,2,t_312.jpg,312,tbd,111.467906224862,118.173256643681,6.66009831115191,tool,0.561694982651716,0,1,1
15,1,animal,0,0,animals,2,a_165.jpg,165,tbd,120.725516048675,124.812049489434,4.04025691017574,animal,0.599096211461983,0,2,1
16,1,tool,0,0,animals,2,t_322.jpg,322,tbd,127.364246350566,133.669317342659,6.24710870572746,tool,0.698331187784788,0,1,1
17,1,tool,0,0,animals,2,t_262.jpg,262,tbd,136.20489678106,141.642606623732,5.38661557829687,tool,0.645438325739633,0,1,1
18,1,tool,0,0,animals,2,t_331.jpg,331,tbd,144.194810220357,148.798416210711,4.55688683342452,tool,0.584968996607131,0,1,1
19,1,animal,0,0,animals,2,a_086.jpg,86,tbd,151.367340507622,158.356271527196,6.9454869547886,animal,0.521559464537859,0,2,1
20,1,tool,0,0,animals,2,t_356.jpg,356,tbd,160.908503669481,167.146843890122,6.20694095709896,tool,0.545441597264471,0,1,1
21,1,tool,0,0,animals,2,t_295.jpg,295,tbd,169.682421404097,175.904085507,6.16314103111651,tool,0.68459976331178,0,1,1
22,1,tool,0,0,animals,2,t_216.jpg,216,tbd,178.456322781089,184.094148602529,5.5962629847455,tool,0.646878438228669,0,1,1
23,1,animal,0,0,animals,2,a_098.jpg,98,tbd,186.646385235143,194.469321319807,7.78864122584217,animal,0.649216295674705,0,2,1
24,1,tool,0,0,animals,2,t_219.jpg,219,tbd,197.021550254714,202.976355740099,5.91547148849229,tool,0.515561668647933,0,1,1
25,1,tool,0,0,animals,2,t_302.jpg,302,tbd,205.528467926466,211.149744642316,5.5793355707228,tool,0.555393127376192,0,1,1
26,1,animal,0,0,animals,2,a_118.jpg,118,tbd,213.668581570265,220.657509061723,6.94561638307376,animal,0.72320760753064,0,2,1
27,1,tool,0,0,animals,2,t_273.jpg,273,tbd,223.19307342545,231.049380989858,7.80518152761753,tool,0.813855151384814,0,1,1
28,1,animal,0,0,animals,2,a_023.jpg,23,tbd,233.601650016984,238.338751548442,4.70237628113537,animal,0.58949075738019,0,2,1
29,1,animal,0,0,animals,2,a_071.jpg,71,tbd,240.857597457047,248.497099774698,7.60657094184038,animal,0.595021559109227,0,2,1
30,1,animal,0,0,animals,2,a_036.jpg,36,tbd,251.049266486481,256.820602923701,5.72992322979135,animal,0.534860138215663,0,2,1
31,1,tool,0,0,animals,2,t_296.jpg,296,tbd,259.372820953525,264.343430149974,4.93520385636322,tool,0.622371187630961,0,1,1
32,1,animal,0,0,animals,2,a_080.jpg,80,tbd,266.879000607718,274.551692226071,7.62580915486209,animal,0.624578825550998,0,2,1
33,1,animal,0,0,animals,2,a_135.jpg,135,tbd,277.087347679319,282.408296472895,5.28645589959739,animal,0.617360622530214,0,2,1
34,1,tool,0,0,animals,2,t_339.jpg,339,tbd,284.960577367317,290.531641947221,5.5249004051591,tool,0.85142476751389,0,1,1
35,1,animal,0,0,animals,2,a_138.jpg,138,tbd,293.083903918116,297.28722406699,4.14790777791668,animal,0.67914433495298,0,2,1
36,1,tool,0,0,animals,2,t_294.jpg,294,tbd,299.839440493125,304.359668460686,4.47187419169922,tool,0.901022369935163,0,1,1
37,1,animal,0,0,animals,2,a_030.jpg,30,tbd,306.911937167074,313.817482466149,6.85136813462485,animal,0.914670723331255,0,2,1
38,1,tool,0,0,animals,2,t_276.jpg,276,tbd,316.369724230566,320.472961051773,4.04927546260935,tool,0.610325881499193,0,1,1
39,1,tool,0,0,animals,2,t_259.jpg,259,tbd,323.008481153691,328.212639711038,5.1511326858859,tool,0.616171326959375,0,1,1
40,1,tool,0,0,animals,2,t_193.jpg,193,tbd,330.764834327006,335.301780749689,4.49454440775801,tool,0.437430915414552,0,1,1
41,1,animal,0,0,animals,2,a_157.jpg,157,tbd,337.837291550212,343.091525609226,5.22093811220649,animal,0.785919214259593,0,2,1
42,1,animal,0,0,animals,2,a_097.jpg,97,tbd,345.627088369263,351.131509097646,5.45252527222225,animal,0.683396034542966,0,2,1
43,1,tool,0,0,animals,2,t_237.jpg,237,tbd,353.683765936737,360.889523051022,7.15908330021902,tool,0.641788009427728,0,1,1
44,1,animal,0,0,animals,2,a_032.jpg,32,tbd,363.441730175761,370.697406592428,7.21369992988225,animal,0.615413102922503,0,2,1
45,1,animal,0,0,animals,2,a_102.jpg,102,tbd,373.249763501696,379.237875677799,5.94034795992177,animal,0.607335643473562,0,2,1
46,1,tool,0,0,animals,2,t_275.jpg,275,tbd,381.773481095958,388.812466769244,7.00745144021659,tool,0.650199036135746,0,1,1
47,1,animal,0,0,animals,2,a_038.jpg,38,tbd,391.36467870505,395.618081091083,4.21336547589647,animal,0.736888676176932,0,2,1
48,1,tool,0,0,animals,2,t_194.jpg,194,tbd,398.170300083119,405.242664933854,7.03220620466111,tool,0.851785597480557,0,1,1
49,1,tool,0,0,animals,2,t_307.jpg,307,tbd,407.794802137765,413.449413769255,5.60758414332462,tool,0.650423552559005,0,1,1
50,1,animal,0,0,animals,2,a_079.jpg,79,tbd,416.001651684819,421.38908588547,5.33003217657664,animal,0.640033573945402,0,2,1
51,1,tool,0,0,animals,2,t_211.jpg,211,tbd,423.941504055649,428.528474661958,4.55199096994258,tool,0.634055663796062,0,1,1
52,1,animal,0,0,animals,2,a_011.jpg,11,tbd,431.080671202353,436.451584201597,5.32824524023452,animal,0.729365772294841,0,2,1
53,1,animal,0,0,animals,2,a_090.jpg,90,tbd,439.003819871997,444.841892853947,5.80249915201164,animal,0.620334502930746,0,2,1
54,1,animal,0,0,animals,2,a_105.jpg,105,tbd,447.377448557755,452.614950369923,5.2000727986847,animal,0.598731532641978,0,2,1
55,1,tool,0,0,animals,2,t_206.jpg,206,tbd,455.16717513524,461.555630244143,6.33914911059848,tool,1.25314526894181,0,1,1
56,1,tool,0,0,animals,2,t_217.jpg,217,tbd,464.074505981358,470.462933186078,6.34552991382225,tool,0.596626210062823,0,1,1
57,1,animal,0,0,animals,2,a_124.jpg,124,tbd,473.01510855778,477.4520396492,4.39283702229719,animal,0.559720200335505,0,2,1
58,1,animal,0,0,animals,2,a_140.jpg,140,tbd,480.004248698367,484.140671933635,4.0691500497443,animal,0.533438307778852,0,2,1
59,1,animal,0,0,animals,2,a_114.jpg,114,tbd,486.693116725047,493.064731177746,6.3197499348937,animal,0.540868839189898,0,2,1
60,1,tool,0,0,animals,2,t_267.jpg,267,tbd,495.617080710046,500.954658152175,5.2977412055518,tool,0.656293374086999,0,1,1
