trial,phase,object,toShock,seenBefore,shockedCategory,responseSide,filename,num,name,onsetFixationCross,onsetStimulus,interTrialTime,response,reactionTime,wasShocked,buttonPressed,isResponseCorrect
1,1,tool,0,0,animals,1,t_293.jpg,293,tbd,0.0265633928412399,6.06446417770871,5.88057760745519,tool,1.422162027328,0,2,1
2,1,animal,0,0,animals,1,a_044.jpg,44,tbd,8.61672276864203,14.3046514092346,5.65074632925716,animal,0.728218025513911,0,1,1
3,1,tool,0,0,animals,1,t_271.jpg,271,tbd,16.8568355899411,21.9775347509978,5.07268606603087,tool,0.877596876523739,0,2,1
4,1,animal,0,0,animals,1,a_179.jpg,179,tbd,24.5297687443477,32.2024935447311,7.62886658593849,animal,1.3178145136078,0,1,1
5,1,tool,0,0,animals,1,t_215.jpg,215,tbd,34.7713545967827,40.342408826122,5.53517811211757,tool,0.763359538049372,0,2,1
6,1,animal,0,0,animals,1,a_126.jpg,126,tbd,42.8945346332886,50.116981761134,7.19197730623876,animal,0.834123022256904,0,1,1
7,1,tool,0,0,animals,1,t_253.jpg,253,tbd,52.669188393202,59.3578011588538,6.63553964721716,tool,0.819613990234416,0,2,1
8,1,animal,0,0,animals,1,a_035.jpg,35,tbd,61.9100206202713,69.7994672294902,7.85372867780757,animal,0.790275513187339,0,1,1
9,1,tool,0,0,animals,1,t_206.jpg,206,tbd,72.3517797036913,78.2062163012066,5.8140111747671,tool,0.990660970991371,0,2,1
10,1,animal,0,0,animals,1,a_073.jpg,73,tbd,80.7419548595918,85.5123117496422,4.72977689071498,animal,0.695515372308137,0,1,1
11,1,tool,0,0,animals,1,t_182.jpg,182,tbd,88.0478347749566,92.734648865816,4.64828487145266,tool,0.979921522570066,0,2,1
12,1,animal,0,0,animals,1,a_142.jpg,142,tbd,95.2869241349036,99.5236394237355,4.19349657341407,animal,1.12119671500227,0,1,1
13,1,animal,0,0,animals,1,a_081.jpg,81,tbd,102.075861771757,110.015308204572,7.90449225901087,animal,0.72479804168529,0,1,1
14,1,animal,0,0,animals,1,a_045.jpg,45,tbd,112.55103842388,119.272988895535,6.67733357676666,animal,0.748503472124412,0,1,1
15,1,tool,0,0,animals,1,t_285.jpg,285,tbd,121.808496204897,129.197666181268,7.34491749983709,tool,0.726085146168316,0,2,1
16,1,animal,0,0,animals,1,a_089.jpg,89,tbd,131.749884680485,135.969646946225,4.17146931268045,animal,0.607431624880974,0,1,1
17,1,animal,0,0,animals,1,a_172.jpg,172,tbd,138.505370750858,142.608572603673,4.05668675710722,animal,0.686718287392978,0,1,1
18,1,animal,0,0,animals,1,a_046.jpg,46,tbd,145.144066762951,150.164668453025,4.97799927789902,animal,0.637886576063693,0,1,1
19,1,tool,0,0,animals,1,t_249.jpg,249,tbd,152.700185705133,158.67135238372,5.93276730118366,tool,0.645493418084016,0,2,1
20,1,tool,0,0,animals,1,t_219.jpg,219,tbd,161.223782567202,167.345242187947,6.07567394191844,tool,0.518885700139663,0,2,1
21,1,tool,0,0,animals,1,t_248.jpg,248,tbd,169.880685671295,175.2681836627,5.34354413389939,tool,0.609265259650556,0,2,1
22,1,animal,0,0,animals,1,a_159.jpg,159,tbd,177.820523399269,183.725180805925,5.85553077679793,animal,0.625544421162658,0,1,1
23,1,tool,0,0,animals,1,t_325.jpg,325,tbd,186.277363703696,192.131996269525,5.81096987721294,tool,0.463029919988685,0,2,1
24,1,tool,0,0,animals,1,t_246.jpg,246,tbd,194.684091606986,201.722895578055,7.00770534152336,tool,0.762105789874795,0,2,1
25,1,animal,0,0,animals,1,a_103.jpg,103,tbd,204.258614250948,210.563720556541,6.24348376635888,animal,0.88792097475698,0,1,1
26,1,tool,0,0,animals,1,t_312.jpg,312,tbd,213.099114646894,220.204525713683,7.06698071377028,tool,0.589379768008939,0,2,1
27,1,animal,0,0,animals,1,a_106.jpg,106,tbd,222.723575854309,230.646329379093,7.86896370572247,animal,0.82869300010384,0,1,1
28,1,tool,0,0,animals,1,t_339.jpg,339,tbd,233.182066333809,237.935742182976,4.71237727312265,tool,0.683497799948327,0,2,1
29,1,animal,0,0,animals,1,a_061.jpg,61,tbd,240.471240832526,247.576860376244,7.05421377161885,animal,0.767051824819873,0,1,1
30,1,animal,0,0,animals,1,a_056.jpg,56,tbd,250.128981051671,257.134622437356,6.96909640803385,animal,0.787620158585696,0,1,1
31,1,tool,0,0,animals,1,t_250.jpg,250,tbd,259.670145141937,264.723939566366,5.00378651678807,tool,0.86459016132153,0,2,1
32,1,tool,0,0,animals,1,t_273.jpg,273,tbd,267.276321319054,273.731406568477,6.42299834082542,tool,0.85332984131287,0,2,1
33,1,tool,0,0,animals,1,t_223.jpg,223,tbd,276.283634368972,283.722815394621,7.38615325769184,tool,0.793360971729044,0,2,1
34,1,animal,0,0,animals,1,a_141.jpg,141,tbd,286.275047685388,292.396503778062,6.06988965376529,animal,0.884977601260289,0,1,1
35,1,tool,0,0,animals,1,t_283.jpg,283,tbd,294.948701750319,301.387111732066,6.38631662242174,tool,0.621680541843261,0,2,1
36,1,animal,0,0,animals,1,a_163.jpg,163,tbd,303.922664585618,309.660347688499,5.70048077232057,animal,0.749382282561328,0,1,1
37,1,tool,0,0,animals,1,t_200.jpg,200,tbd,312.195982649887,317.950532819219,5.71459893678891,tool,0.927830515013738,0,2,1
38,1,animal,0,0,animals,1,a_080.jpg,80,tbd,320.502740092754,326.474094400577,5.93697036149725,animal,0.776580503387322,0,1,1
39,1,tool,0,0,animals,1,t_294.jpg,294,tbd,329.009614539288,335.614696052163,6.55905485438018,tool,1.12822880216731,0,2,1
40,1,animal,0,0,animals,1,a_047.jpg,47,tbd,338.167020072779,342.57050311286,4.35089876423351,animal,0.996640410034615,0,1,1
41,1,tool,0,0,animals,1,t_318.jpg,318,tbd,345.122698198513,350.97729195556,5.80345619802671,tool,0.791199226347544,0,2,1
42,1,animal,0,0,animals,1,a_039.jpg,39,tbd,353.512818508945,357.699389644,4.15090318027716,animal,0.806354536847948,0,1,1
43,1,animal,0,0,animals,1,a_013.jpg,13,tbd,360.234821260199,364.521568125267,4.23702330920155,animal,0.721916249065998,0,1,1
44,1,tool,0,0,animals,1,t_266.jpg,266,tbd,367.040451805084,371.994125986435,4.90798109416123,tool,0.60809297784499,0,2,1
45,1,animal,0,0,animals,1,a_048.jpg,48,tbd,374.529813548157,379.233401371949,4.66698466518296,animal,0.55298482803255,0,1,1
46,1,animal,0,0,animals,1,a_042.jpg,42,tbd,381.769033446734,389.458436500312,7.64000278144531,animal,0.626374159338184,0,1,1
47,1,tool,0,0,animals,1,t_302.jpg,302,tbd,392.010674564286,396.797651235076,4.74980192282263,tool,1.02439670756121,0,2,1
48,1,tool,0,0,animals,1,t_326.jpg,326,tbd,399.349846962197,405.488051129106,6.09092134906239,tool,0.859325317042703,0,2,1
49,1,tool,0,0,animals,1,t_320.jpg,320,tbd,408.040181105811,413.527933727729,5.45485344945439,tool,0.573370022835206,0,2,1
50,1,animal,0,0,animals,1,a_167.jpg,167,tbd,416.046758713272,423.636119782803,7.54740412361323,animal,0.620423586331299,0,1,1
51,1,tool,0,0,animals,1,t_247.jpg,247,tbd,426.154917185245,431.158689334716,4.97984852849781,tool,0.991587250021439,0,2,1
52,1,tool,0,0,animals,1,t_313.jpg,313,tbd,433.694319164365,440.699922062002,6.97315319841212,tool,0.656614218917639,0,2,1
53,1,animal,0,0,animals,1,a_124.jpg,124,tbd,443.25206262292,449.607122887185,6.32053254772632,animal,0.661726393938125,0,1,1
54,1,tool,0,0,animals,1,t_295.jpg,295,tbd,452.159246128482,458.530852725462,6.32906034546017,tool,0.82435860439341,0,2,1
55,1,animal,0,0,animals,1,a_029.jpg,29,tbd,461.083242817227,468.172075477928,7.04920675113459,animal,0.686483189564569,0,1,1
56,1,tool,0,0,animals,1,t_180.jpg,180,tbd,470.724414252295,476.07846580896,5.317419263606,tool,0.924295708507771,0,2,1
57,1,animal,0,0,animals,1,a_111.jpg,111,tbd,478.614121297308,485.669544086915,7.0079434838553,animal,0.570600807757273,0,1,1
58,1,tool,0,0,animals,1,t_227.jpg,227,tbd,488.2052027826,493.976416673194,5.74522850921136,tool,0.802973041068071,0,2,1
59,1,animal,0,0,animals,1,a_026.jpg,26,tbd,496.511949961988,503.717553757679,7.16766057979476,animal,0.698246099337894,0,1,1
60,1,animal,0,0,animals,1,a_057.jpg,57,tbd,506.269859496472,512.79165351421,6.46544150645943,animal,0.677426951790494,0,1,1
