trial,phase,object,toShock,seenBefore,shockedCategory,responseSide,filename,num,name,onsetFixationCross,onsetStimulus,interTrialTime,response,reactionTime,wasShocked,buttonPressed,isResponseCorrect
1,1,tool,0,0,tools,1,t_354.jpg,354,tbd,0.0266337777179615,5.48073265155062,5.28964103700897,tool,1.69790686462602,0,2,1
2,1,animal,0,0,tools,1,a_078.jpg,78,tbd,8.06651373276372,13.6710966609007,5.5479732435401,animal,0.974833908802793,0,1,1
3,1,tool,0,0,tools,1,t_194.jpg,194,tbd,16.2231517427654,23.5956766254403,7.33983732016789,tool,1.21469930244803,0,2,1
4,1,animal,0,0,tools,1,a_088.jpg,88,tbd,26.1479296012258,30.6849434621395,4.48112190998152,animal,0.962682195689467,0,1,1
5,1,tool,0,0,tools,1,t_315.jpg,315,tbd,33.2370264480091,39.4419666115587,6.15102132017109,tool,1.38905731788964,0,2,1
6,1,tool,0,0,tools,1,t_189.jpg,189,tbd,41.9774932210748,49.3334004668786,7.31749754772385,tool,1.00198899605584,0,2,1
7,1,animal,0,0,tools,1,a_130.jpg,130,tbd,51.902290965148,59.7085970778571,7.73909225706162,animal,1.13423184942303,0,1,1
8,1,tool,0,0,tools,1,t_245.jpg,245,tbd,62.2773823748198,67.3814348061246,5.05952343282975,tool,0.967244660889719,0,2,1
9,1,animal,0,0,tools,1,a_119.jpg,119,tbd,69.9169934892097,74.7874762477418,4.81913552657577,animal,0.95895909579167,0,1,1
10,1,animal,0,0,tools,1,a_021.jpg,21,tbd,77.3396073439653,82.0935296207267,4.70486460771786,animal,0.969113587759239,0,1,1
11,1,tool,0,0,tools,1,t_308.jpg,308,tbd,84.645601701583,88.7155108564057,4.01533509965042,tool,1.00414401916169,0,2,1
12,1,tool,0,0,tools,1,t_265.jpg,265,tbd,91.2343479842561,97.2724651759459,6.00573984255951,tool,1.03587632545623,0,2,1
13,1,animal,0,0,tools,1,a_141.jpg,141,tbd,99.8079905025188,106.730211135317,6.88540180294667,animal,0.878436796963797,0,1,1
14,1,animal,0,0,tools,1,a_025.jpg,25,tbd,109.282423377671,115.103516688664,5.78946792954783,animal,1.22321515577187,0,1,1
15,1,tool,0,0,tools,1,t_275.jpg,275,tbd,117.639191157333,122.809969120995,5.1276742247509,tool,1.54945659533632,0,2,1
16,1,animal,0,0,tools,1,a_008.jpg,8,tbd,125.362195475718,132.334574680242,6.92521720862395,animal,0.992208481903617,0,1,1
17,1,tool,0,0,tools,1,t_196.jpg,196,tbd,134.886548936713,141.775476563346,6.83276782750523,tool,0.990674403094999,0,2,1
18,1,tool,0,0,tools,1,t_214.jpg,214,tbd,144.327661222429,149.631751692987,5.26802291941299,tool,1.27375540296953,0,2,1
19,1,tool,0,0,tools,1,t_357.jpg,357,tbd,152.184022950707,160.040163692094,7.79944402713912,tool,0.864733364578569,0,2,1
20,1,animal,0,0,tools,1,a_166.jpg,166,tbd,162.592600128695,169.131007265449,6.48390118639146,animal,1.01817941298623,0,1,1
21,1,tool,0,0,tools,1,t_225.jpg,225,tbd,171.683251260636,179.372929857815,7.62634338530696,tool,1.28375305518375,0,2,1
22,1,animal,0,0,tools,1,a_082.jpg,82,tbd,181.908312457005,189.681279698345,7.71616357083165,animal,1.06175777128146,0,1,1
23,1,animal,0,0,tools,1,a_041.jpg,41,tbd,192.23342105811,199.739419136262,7.458332652761,animal,1.30910657006234,0,1,1
24,1,animal,0,0,tools,1,a_044.jpg,44,tbd,202.274881919375,207.195425104512,4.86339930902927,animal,0.748305988119228,0,1,1
25,1,tool,0,0,tools,1,t_352.jpg,352,tbd,209.74770245621,215.385323405639,5.58681728418002,tool,1.1078994492168,0,2,1
26,1,animal,0,0,tools,1,a_011.jpg,11,tbd,217.921036683327,225.877401554814,7.9105998014896,animal,1.04515969928798,0,1,1
27,1,tool,0,0,tools,1,t_247.jpg,247,tbd,228.429599364061,232.499482860029,4.02923662680751,tool,1.60833180092777,0,2,1
28,1,tool,0,0,tools,1,t_298.jpg,298,tbd,235.035025827065,241.790357416452,6.70478340871544,tool,1.04288760765485,0,2,1
29,1,animal,0,0,tools,1,a_173.jpg,173,tbd,244.325918023951,250.164009364344,5.78179890773095,animal,1.37155829934045,0,1,1
30,1,tool,0,0,tools,1,t_241.jpg,241,tbd,252.699429168874,257.386431226715,4.63499192482032,tool,0.883429689460627,0,2,1
31,1,tool,0,0,tools,1,t_197.jpg,197,tbd,259.938671373073,266.510571013592,6.52177331391976,tool,1.09464344311982,0,2,1
32,1,animal,0,0,tools,1,a_032.jpg,32,tbd,269.062777803438,276.885636443673,7.79100556014925,animal,1.07053951449279,0,1,1
33,1,animal,0,0,tools,1,a_075.jpg,75,tbd,279.404549265146,285.225829565047,5.78321969797294,animal,1.03016626795488,0,1,1
34,1,tool,0,0,tools,1,t_237.jpg,237,tbd,287.778018393695,292.99885902911,5.17224207041873,tool,0.704433515195888,0,2,1
35,1,tool,0,0,tools,1,t_240.jpg,240,tbd,295.534346829608,299.721011473501,4.1324066965012,tool,0.998212974769103,0,2,1
36,1,animal,0,0,tools,1,a_040.jpg,40,tbd,302.273194849642,308.161209983235,5.85132057014831,animal,0.953656693352968,0,1,1
37,1,tool,0,0,tools,1,t_224.jpg,224,tbd,310.696752629535,316.067672550814,5.33728460484243,tool,1.14556376211112,0,2,1
38,1,animal,0,0,tools,1,a_077.jpg,77,tbd,318.619873888154,325.425228378068,6.76474051841858,animal,1.31719712786025,0,1,1
39,1,animal,0,0,tools,1,a_151.jpg,151,tbd,327.977527539794,334.866333928335,6.84353530192965,animal,1.17767421578537,0,1,1
40,1,tool,0,0,tools,1,t_232.jpg,232,tbd,337.418542001124,342.28903341952,4.81558171549093,tool,0.953293620550994,0,2,1
41,1,tool,0,0,tools,1,t_257.jpg,257,tbd,344.824584404948,351.563276226701,6.70095416207229,tool,0.946182910288826,0,2,1
42,1,animal,0,0,tools,1,a_066.jpg,66,tbd,354.115535296466,359.169507094818,5.00371193240654,animal,2.1325544017609,0,1,1
43,1,tool,0,0,tools,1,t_287.jpg,287,tbd,361.721682131831,366.875781518841,5.11049886622488,tool,1.5284949142706,0,2,1
44,1,animal,0,0,tools,1,a_169.jpg,169,tbd,369.428008835771,376.867208574564,7.39090508381291,animal,1.03150149063549,0,1,1
45,1,tool,0,0,tools,1,t_348.jpg,348,tbd,379.419470210213,384.673617964165,5.21641291333269,tool,0.758430972403403,0,2,1
46,1,animal,0,0,tools,1,a_007.jpg,7,tbd,387.209182741228,392.146405465224,4.88435502098489,animal,1.0495929080048,0,1,1
47,1,animal,0,0,tools,1,a_154.jpg,154,tbd,394.681904812206,400.253008707477,5.51552628609681,animal,0.998652382665114,0,1,1
48,1,animal,0,0,tools,1,a_126.jpg,126,tbd,402.805249816042,406.875087446806,4.03726112414626,animal,1.02386637751806,0,1,1
49,1,tool,0,0,tools,1,t_181.jpg,181,tbd,409.427207638016,414.748323400507,5.26994915691328,tool,1.35892965225503,0,2,1
50,1,animal,0,0,tools,1,a_117.jpg,117,tbd,417.283707282641,423.955682552636,6.62693881731984,animal,0.872930085889948,0,1,1
51,1,tool,0,0,tools,1,t_199.jpg,199,tbd,426.507913076923,433.446723121852,6.89370924552622,tool,1.16031247211231,0,2,1
52,1,tool,0,0,tools,1,t_276.jpg,276,tbd,435.998950759518,441.886962044282,5.8316975830891,tool,0.943913384541247,0,2,1
53,1,tool,0,0,tools,1,t_329.jpg,329,tbd,444.422514312654,452.078478136234,7.60303141879572,tool,1.04181987854099,0,2,1
54,1,animal,0,0,tools,1,a_124.jpg,124,tbd,454.614156453731,459.918364955023,5.25312976195517,animal,0.964750620158611,0,1,1
55,1,tool,0,0,tools,1,t_262.jpg,262,tbd,462.470483542555,470.110030189071,7.58458122211903,tool,1.09248521265727,0,2,1
56,1,animal,0,0,tools,1,a_114.jpg,114,tbd,472.645545252101,479.467600128695,6.78044346992639,animal,0.990285029966344,0,1,1
57,1,animal,0,0,tools,1,a_072.jpg,72,tbd,482.003101400092,488.074674210942,6.03703637165934,animal,1.18356324380238,0,1,1
58,1,animal,0,0,tools,1,a_067.jpg,67,tbd,490.626843474713,496.030963388806,5.34900495127993,animal,1.52316268341292,0,1,1
59,1,tool,0,0,tools,1,t_193.jpg,193,tbd,498.549996486164,505.155264826472,6.54899832481389,tool,1.27871654263299,0,2,1
60,1,animal,0,0,tools,1,a_074.jpg,74,tbd,507.707486690896,513.978975019966,6.20618932344231,animal,0.776275423291281,0,1,1
