trial,phase,object,toShock,seenBefore,shockedCategory,responseSide,filename,num,name,onsetFixationCross,onsetStimulus,interTrialTime,response,reactionTime,wasShocked,buttonPressed,isResponseCorrect
1,1,animal,0,0,animals,1,a_036.jpg,36,tbd,0.0273919778378513,6.39901222768151,6.21929310903547,animal,1.18653605189775,0,1,1
2,1,animal,0,0,animals,1,a_053.jpg,53,tbd,8.96777052460902,16.2070501484293,7.19824545646445,animal,0.778738872348072,0,1,1
3,1,tool,0,0,animals,1,t_299.jpg,299,tbd,18.7592452200022,23.7964719044929,4.994509014281,tool,1.07956882971314,0,2,1
4,1,tool,0,0,animals,1,t_240.jpg,240,tbd,26.3485874346095,32.5368434593136,6.1416979493039,tool,0.752026413750514,0,2,1
5,1,animal,0,0,animals,1,a_162.jpg,162,tbd,35.0890244186926,41.3437530460155,6.19966200303466,animal,0.652394966522479,0,1,1
6,1,tool,0,0,animals,1,t_216.jpg,216,tbd,43.8794067019878,48.5663600749785,4.65053477070897,tool,0.828339064273791,0,2,1
7,1,tool,0,0,animals,1,t_275.jpg,275,tbd,51.1185795221591,56.7060961320508,5.53715387132303,tool,0.619855775516953,0,2,1
8,1,animal,0,0,animals,1,a_122.jpg,122,tbd,59.2418222733825,63.4283274238522,4.1333985428643,animal,0.635796139951367,0,1,1
9,1,tool,0,0,animals,1,t_239.jpg,239,tbd,65.9805119112797,70.4672187057557,4.4408871541473,tool,0.847163768695623,0,2,1
10,1,tool,0,0,animals,1,t_284.jpg,284,tbd,73.019495243175,79.2408943966359,6.1646588231731,tool,0.94656428911469,0,2,1
11,1,tool,0,0,animals,1,t_355.jpg,355,tbd,81.7932049316131,86.5468538157395,4.71380302019776,tool,0.652689718935335,0,2,1
12,1,animal,0,0,animals,1,a_085.jpg,85,tbd,89.0824080448914,93.3857281630104,4.25605725091611,animal,0.715307447507143,0,1,1
13,1,animal,0,0,animals,1,a_138.jpg,138,tbd,95.9378558809308,100.357856580126,4.36711676782731,animal,0.626953888299568,0,1,1
14,1,tool,0,0,animals,1,t_204.jpg,204,tbd,102.893504142196,109.565387616528,6.63568505458202,tool,0.714040557376052,0,2,1
15,1,tool,0,0,animals,1,t_222.jpg,222,tbd,112.117539389325,116.887939768301,4.72230210863316,tool,0.798687420572151,0,2,1
16,1,animal,0,0,animals,1,a_152.jpg,152,tbd,119.440134198411,126.779227765784,7.29764164181721,animal,0.690630031411388,0,1,1
17,1,animal,0,0,animals,1,a_084.jpg,84,tbd,129.331420592235,134.885569881927,5.51852441214589,animal,0.765226767453328,0,1,1
18,1,tool,0,0,animals,1,t_322.jpg,322,tbd,137.421234442776,145.027207236391,7.55527935993153,tool,0.718243746026246,0,2,1
19,1,tool,0,0,animals,1,t_342.jpg,342,tbd,147.579363820162,153.283842292812,5.65890879033191,tool,0.679807261643191,0,2,1
20,1,animal,0,0,animals,1,a_001.jpg,1,tbd,155.836038968044,163.475380685517,7.59702858180527,animal,0.877575225744295,0,1,1
21,1,animal,0,0,animals,1,a_168.jpg,168,tbd,166.027465104661,170.797889538513,4.72739524183248,animal,0.824264809758461,0,1,1
22,1,tool,0,0,animals,1,t_315.jpg,315,tbd,173.350029444237,178.770826199459,5.36359416066685,tool,0.991569679010695,0,2,1
23,1,animal,0,0,animals,1,a_159.jpg,159,tbd,181.306450027385,186.777407292776,5.42967641476088,animal,0.86120059061659,0,1,1
24,1,tool,0,0,animals,1,t_340.jpg,340,tbd,189.329583120448,194.200047292955,4.8283341062358,tool,0.657804427016458,0,2,1
25,1,tool,0,0,animals,1,t_314.jpg,314,tbd,196.752233384041,204.50833586551,7.72184613537399,tool,0.951321060642499,0,2,1
26,1,tool,0,0,animals,1,t_188.jpg,188,tbd,207.04385160686,213.298705319538,6.22336423227745,tool,1.09229610418993,0,2,1
27,1,animal,0,0,animals,1,a_106.jpg,106,tbd,215.834246398691,223.706929392952,7.82239662740715,animal,0.779701067384281,0,1,1
28,1,animal,0,0,animals,1,a_031.jpg,31,tbd,226.259264945,230.996288061095,4.68675727513761,animal,0.866588882819997,0,1,1
29,1,animal,0,0,animals,1,a_012.jpg,12,tbd,233.548473831449,240.787478267489,7.19471846367787,animal,0.753643222143182,0,1,1
30,1,tool,0,0,animals,1,t_235.jpg,235,tbd,243.339687130524,249.177555983982,5.78984475155852,tool,0.80479158588264,0,2,1
31,1,animal,0,0,animals,1,a_047.jpg,47,tbd,251.713066914357,256.082980230206,4.31492361168351,animal,0.612583505432667,0,1,1
32,1,animal,0,0,animals,1,a_149.jpg,149,tbd,258.618581606915,265.20710563501,6.541514397731,animal,0.662244957109124,0,1,1
33,1,animal,0,0,animals,1,a_043.jpg,43,tbd,267.742598925143,275.131727596598,7.35743658072698,animal,0.632351802453286,0,1,1
34,1,tool,0,0,animals,1,t_224.jpg,224,tbd,277.683926516951,285.28973573741,7.56297028005108,tool,2.08764838143293,0,2,1
35,1,tool,0,0,animals,1,t_189.jpg,189,tbd,287.841934016299,293.36305211259,5.4843893474538,tool,0.777190700534902,0,2,1
36,1,tool,0,0,animals,1,t_356.jpg,356,tbd,295.898523913701,302.153457809298,6.2278306657389,tool,0.665274909278423,0,2,1
37,1,animal,0,0,animals,1,a_146.jpg,146,tbd,304.705634919897,309.475991679365,4.7186320798284,animal,0.653714456649141,0,1,1
38,1,tool,0,0,animals,1,t_313.jpg,313,tbd,311.994863691709,316.298132172028,4.26562230561324,tool,0.831135523781086,0,2,1
39,1,animal,0,0,animals,1,a_090.jpg,90,tbd,318.850316980187,322.920086383732,4.03009288596862,animal,0.668339500469074,0,1,1
40,1,tool,0,0,animals,1,t_321.jpg,321,tbd,325.472343356519,333.478615905961,7.9617535260716,tool,0.773106182605488,0,2,1
41,1,tool,0,0,animals,1,t_289.jpg,289,tbd,336.014115610727,341.001324831378,4.95296779819659,tool,0.871600636032554,0,2,1
42,1,tool,0,0,animals,1,t_330.jpg,330,tbd,343.536853722727,348.240336644246,4.64692683238443,tool,0.631795974454008,0,2,1
43,1,animal,0,0,animals,1,a_134.jpg,134,tbd,350.77598869656,355.863261069279,5.0372500017584,animal,0.841097770455235,0,1,1
44,1,tool,0,0,animals,1,t_320.jpg,320,tbd,358.41542535061,365.337544001446,6.89282486310523,tool,0.820716234464726,0,2,1
45,1,tool,0,0,animals,1,t_301.jpg,301,tbd,367.873041461091,373.410693596154,5.49557939329132,tool,0.837151808611452,0,2,1
46,1,tool,0,0,animals,1,t_260.jpg,260,tbd,375.946192659457,380.69974724847,4.70237350869995,tool,0.733310758099606,0,2,1
47,1,animal,0,0,animals,1,a_121.jpg,121,tbd,383.252028596864,389.356753263151,6.05962156186382,animal,0.939550528763675,0,1,1
48,1,animal,0,0,animals,1,a_164.jpg,164,tbd,391.892333150837,396.812826012793,4.88392886782034,animal,0.667686490771075,0,1,1
49,1,animal,0,0,animals,1,a_094.jpg,94,tbd,399.381693679223,403.434682401335,4.00344070775139,animal,0.853011348662903,0,1,1
50,1,tool,0,0,animals,1,t_187.jpg,187,tbd,405.986999671677,413.726426350973,7.70327426601769,tool,0.888587868666491,0,2,1
51,1,animal,0,0,animals,1,a_157.jpg,157,tbd,416.278619818887,422.249739534873,5.92853621959354,animal,0.938473832517957,0,1,1
52,1,animal,0,0,animals,1,a_100.jpg,100,tbd,424.802041410095,431.307027023675,6.45636532421397,animal,0.759108169217825,0,1,1
53,1,animal,0,0,animals,1,a_169.jpg,169,tbd,433.842716280864,438.362718872376,4.48267398875225,animal,1.19361812809666,0,1,1
54,1,tool,0,0,animals,1,t_310.jpg,310,tbd,440.898396583224,448.104031453942,7.16161629240255,tool,0.845835939545623,0,2,1
55,1,animal,0,0,animals,1,a_004.jpg,4,tbd,450.656219790149,455.793555491338,5.09725114801837,animal,0.698662114842818,0,1,1
56,1,animal,0,0,animals,1,a_108.jpg,108,tbd,458.345742223887,465.201073634327,6.82705201713939,animal,0.670349525899837,0,1,1
57,1,tool,0,0,animals,1,t_212.jpg,212,tbd,467.753321305895,472.940491653867,5.14878676215156,tool,0.794181781948964,0,2,1
58,1,tool,0,0,animals,1,t_318.jpg,318,tbd,475.492853826644,480.463203465869,4.92531472057228,tool,0.661361341334214,0,2,1
59,1,animal,0,0,animals,1,a_087.jpg,87,tbd,482.998847499891,488.119528887928,5.08584888036826,animal,1.04210993548713,0,1,1
60,1,animal,0,0,animals,1,a_016.jpg,16,tbd,490.654975992699,497.193481274027,6.49663137684165,animal,0.77084085475849,0,1,1
