trial,phase,object,toShock,seenBefore,shockedCategory,responseSide,filename,num,name,onsetFixationCross,onsetStimulus,interTrialTime,response,reactionTime,wasShocked,buttonPressed,isResponseCorrect
1,2,tool,0,0,animals,1,t_280.jpg,280,tbd,0.0250554452434244,7.56421726431813,7.43807391384848,1,2.23738357163688,0,1,0
2,2,animal,0,0,animals,1,a_025.jpg,25,tbd,12.1513079425406,20.1577148785555,7.96887567203681,1,1.47308832016574,0,1,0
3,2,tool,0,0,animals,1,t_309.jpg,309,tbd,24.6948397307383,34.4692229557015,9.71510815340146,1,1.13211077491133,0,1,0
4,2,animal,1,0,animals,1,a_041.jpg,41,tbd,39.0229357295782,48.6304230181802,9.56490287406263,0,1.91930787190449,1,2,0
5,2,animal,1,0,animals,1,a_110.jpg,110,tbd,53.4012557434596,62.4749813722622,9.03679440271182,0,1.21910699765431,1,2,0
6,2,animal,0,0,animals,1,a_128.jpg,128,tbd,67.2290353404985,75.6189645582247,8.3612428765252,1,3.82658434357381,0,1,0
7,2,tool,0,0,animals,1,t_344.jpg,344,tbd,80.1727475723389,87.8954455287328,7.69268818204788,1,2.80697095995447,0,1,0
8,2,tool,0,0,animals,1,t_282.jpg,282,tbd,92.41589425801,101.53978584942,9.08089127957978,0,2.9684827736246,0,2,1
9,2,animal,0,0,animals,1,a_077.jpg,77,tbd,106.093566297681,113.599459902644,7.47287766652614,1,1.55080769983215,0,1,0
10,2,tool,0,0,animals,1,t_181.jpg,181,tbd,118.136538569465,125.008575930857,6.82946626709882,1,2.24634866352199,0,1,0
11,2,tool,0,0,animals,1,t_279.jpg,279,tbd,129.545736063524,139.403530372525,9.82536408337079,0,2.8544370032896,0,2,1
12,2,tool,0,0,animals,1,t_209.jpg,209,tbd,143.923942859123,153.598276402749,9.62238427217795,1,1.80039082883286,0,1,0
13,2,animal,0,0,animals,1,a_099.jpg,99,tbd,158.15205685101,166.85874195761,8.66399982808533,0,3.40701406629159,0,2,1
14,2,animal,1,0,animals,1,a_058.jpg,58,tbd,171.379351373458,179.085409128895,7.67420624429063,1,1.59997169667531,1,1,1
15,2,tool,0,0,animals,1,t_327.jpg,327,tbd,183.839373292261,192.195777389801,8.31649931869736,0,1.77890469294061,0,2,1
16,2,animal,0,0,animals,1,a_148.jpg,148,tbd,196.733030855387,203.638469534537,6.8664448023094,1,0.907613674165077,0,1,0
17,2,animal,0,0,animals,1,a_083.jpg,83,tbd,208.19225800109,216.799052829997,8.55872709722986,0,3.2424703760621,0,2,1
18,2,animal,1,0,animals,1,a_155.jpg,155,tbd,221.336136628525,229.50908765825,8.12669699084167,0,2.15876389814821,1,2,0
19,2,tool,0,0,animals,1,t_305.jpg,305,tbd,234.263207055749,242.002473369205,7.68549492026321,0,3.5137461921563,0,2,1
20,2,tool,0,0,animals,1,t_293.jpg,293,tbd,246.573123341574,253.094701687823,6.47330362200092,1,2.08986175306291,0,1,0
21,2,tool,0,0,animals,1,t_349.jpg,349,tbd,257.648655972654,264.854320350687,7.16600990350025,0,0.817462093166796,0,2,1
22,2,animal,1,0,animals,1,a_055.jpg,55,tbd,269.391400941898,278.948793149593,9.51600916934553,1,2.38340693180817,1,1,1
23,2,tool,0,0,animals,1,t_331.jpg,331,tbd,283.702925697092,290.691739538331,6.94709474145262,0,1.8758153733379,0,2,1
24,2,animal,1,0,animals,1,a_008.jpg,8,tbd,295.24549657318,303.285025148929,7.99301632244588,1,0.846815777139,1,1,1
25,2,tool,0,0,animals,1,t_285.jpg,285,tbd,308.039145829355,315.728355228974,7.6410350767604,0,0.962848480223784,0,2,1
26,2,animal,1,0,animals,1,a_113.jpg,113,tbd,320.282293156489,329.856356355384,9.53304218136436,0,2.61102250666681,1,2,0
27,2,animal,1,0,animals,1,a_048.jpg,48,tbd,334.593810214122,343.000250377939,8.355455542329,0,1.27390015619085,1,2,0
28,2,tool,0,0,animals,1,t_323.jpg,323,tbd,347.754365926658,355.810556513119,8.00684018273851,0,1.94684749750195,0,2,1
29,2,animal,1,0,animals,1,a_021.jpg,21,tbd,360.364502138195,367.720292355302,7.31193196520984,1,1.77640811755282,1,1,1
30,2,tool,0,0,animals,1,t_294.jpg,294,tbd,372.457566925032,382.298627700157,9.80021036741118,0,1.15946918710961,0,2,1
31,2,animal,0,0,animals,1,a_127.jpg,127,tbd,386.852457541096,394.024591025772,7.13217497310916,1,2.69087250687517,0,1,0
32,2,animal,1,0,animals,1,a_170.jpg,170,tbd,398.578535367921,407.718923472496,9.10353378325821,0,1.81990029538883,1,2,0
33,2,tool,0,0,animals,1,t_228.jpg,228,tbd,412.456379255625,421.880475698358,9.38122274702941,0,2.68244207469888,0,2,1
34,2,animal,1,0,animals,1,a_145.jpg,145,tbd,426.417580344445,432.455636120326,6.00347654863304,1,1.67589273381873,1,1,1
35,2,tool,0,0,animals,1,t_217.jpg,217,tbd,437.209553777599,446.099837564195,8.84991012685544,0,1.26207381700033,0,2,1
36,2,tool,0,0,animals,1,t_195.jpg,195,tbd,450.653641425869,456.908618299511,6.20284905166214,0,1.31058448341309,0,2,1
37,2,animal,1,0,animals,1,a_105.jpg,105,tbd,461.462386559969,467.683937740245,6.16658736776562,1,0.890700209817624,1,1,1
38,2,animal,0,0,animals,1,a_086.jpg,86,tbd,472.437886829223,481.594975753043,9.1064002065156,1,1.84495232608515,0,1,0
39,2,tool,0,0,animals,1,t_291.jpg,291,tbd,486.148845685442,494.77236346408,8.58776144713827,0,0.901921007598958,0,2,1
40,2,tool,0,0,animals,1,t_346.jpg,346,tbd,499.309468430899,507.799313584852,8.4411886965072,0,1.0862907265514,0,2,1
41,2,tool,0,0,animals,1,t_266.jpg,266,tbd,512.353213024566,520.409461342729,8.01182157851194,0,0.991549795961419,0,2,1
42,2,animal,1,0,animals,1,a_062.jpg,62,tbd,524.963414344633,532.302339527875,7.28379147960544,1,0.633964443648892,1,1,1
43,2,tool,0,0,animals,1,t_328.jpg,328,tbd,537.056452190009,545.930095454916,8.83548077203709,0,0.837631304785646,0,2,1
44,2,tool,0,0,animals,1,t_237.jpg,237,tbd,550.4838457544,559.390766534637,8.85885091921527,0,1.00933468828043,0,2,1
45,2,animal,1,0,animals,1,a_057.jpg,57,tbd,563.944742308491,572.65147135533,8.66741634353323,1,0.625960263873822,1,1,1
46,2,animal,1,0,animals,1,a_003.jpg,3,tbd,577.388871331147,586.746093935931,9.30962488331401,1,2.32975589877924,1,1,1
47,2,animal,1,0,animals,1,a_120.jpg,120,tbd,591.50015592246,600.790802649024,9.25487604244399,1,1.97650202778868,1,1,1
48,2,tool,0,0,animals,1,t_302.jpg,302,tbd,605.528150666309,614.551889621513,8.99765173413692,0,0.641724546616388,0,2,1
49,2,animal,1,0,animals,1,a_050.jpg,50,tbd,619.105685464894,628.71313522789,9.55761398680949,1,0.873888417411308,1,1,1
50,2,animal,0,0,animals,1,a_033.jpg,33,tbd,633.45057786102,641.106593456277,7.62152713501502,1,0.578833233922978,0,1,0
51,2,animal,0,0,animals,1,a_103.jpg,103,tbd,645.643681745048,654.000102199903,8.32310871725112,1,1.81761764803105,0,1,0
52,2,tool,0,0,animals,1,t_250.jpg,250,tbd,658.554070276197,665.559404044015,6.95209550035683,0,0.541649848208181,0,2,1
53,2,tool,0,0,animals,1,t_192.jpg,192,tbd,670.096601702289,676.334726692065,6.19520157836774,0,0.964649067868322,0,2,1
54,2,animal,1,0,animals,1,a_142.jpg,142,tbd,680.888688353725,689.545327772097,8.61145126286849,1,0.589241297630451,1,1,1
55,2,animal,1,0,animals,1,a_017.jpg,17,tbd,694.282745708888,704.307239345732,9.98121109707361,1,2.12396675612445,1,1,1
56,2,tool,0,0,animals,1,t_339.jpg,339,tbd,709.061248090802,716.467119918084,7.35986106883867,0,0.615374514816267,0,2,1
57,2,animal,1,0,animals,1,a_163.jpg,163,tbd,721.020925704148,728.576854413193,7.51330083122306,1,1.16671483646496,1,1,1
58,2,tool,0,0,animals,1,t_211.jpg,211,tbd,733.314132831704,739.435533941628,6.08563660157491,0,0.647621839993917,0,2,1
59,2,tool,0,0,animals,1,t_288.jpg,288,tbd,743.98936442403,751.378417082078,7.36620347832592,0,0.724211602687774,0,2,1
60,2,tool,0,0,animals,1,t_210.jpg,210,tbd,755.915625324498,763.471488283549,7.5163210639818,0,0.560314507522435,0,2,1
