trial,phase,object,toShock,seenBefore,shockedCategory,responseSide,filename,num,name,onsetFixationCross,onsetStimulus,interTrialTime,response,reactionTime,wasShocked,buttonPressed,isResponseCorrect
1,2,animal,0,0,tools,1,a_070.jpg,70,tbd,0.0255730318085625,8.86578457563064,8.75299734822277,1,1.24592638076501,0,1,0
2,2,animal,0,0,tools,1,a_088.jpg,88,tbd,13.4530201017524,20.8757382583226,7.38141997944649,0,0.860397420180561,0,2,1
3,2,animal,0,0,tools,1,a_010.jpg,10,tbd,25.4295529012115,32.60179548831,7.13734777718398,0,0.847758866771073,0,2,1
4,2,tool,1,0,tools,1,t_258.jpg,258,tbd,37.1724612150101,45.5624602560129,8.33892675290236,1,1.12563384500118,1,1,1
5,2,tool,1,0,tools,1,t_305.jpg,305,tbd,50.3164592572448,59.3236472440603,8.97832106434425,1,0.788957279390161,1,1,1
6,2,tool,1,0,tools,1,t_333.jpg,333,tbd,64.0609520007811,71.2999231349731,7.22159708994679,1,0.904348987947742,1,1,1
7,2,animal,0,0,tools,1,a_143.jpg,143,tbd,76.0540555618672,84.0102188171459,7.92176150487936,0,0.972323589602638,0,2,1
8,2,animal,0,0,tools,1,a_102.jpg,102,tbd,88.5475104878878,94.7190917199014,6.13177110326933,0,1.38186018880697,0,2,1
9,2,tool,1,0,tools,1,t_216.jpg,216,tbd,99.2729339459802,108.46343660471,9.15611359969574,1,0.920060180405017,1,1,1
10,2,animal,0,0,tools,1,a_091.jpg,91,tbd,113.21758218173,120.97359571802,7.7220173897809,0,0.908360417652148,0,2,1
11,2,animal,0,0,tools,1,a_001.jpg,1,tbd,125.52758676503,135.46872872833,9.89446852167833,0,1.5987480929698,0,2,1
12,2,tool,0,0,tools,1,t_235.jpg,235,tbd,140.039363664493,146.344382425874,6.26257350408431,1,1.2195440219466,0,1,0
13,2,animal,0,0,tools,1,a_002.jpg,2,tbd,150.898232349587,158.737652961478,7.79541638305466,0,1.0757044226857,0,2,1
14,2,tool,1,0,tools,1,t_347.jpg,347,tbd,163.291718626489,171.764902907835,8.43445728692557,1,0.901919422104584,1,1,1
15,2,animal,0,0,tools,1,a_133.jpg,133,tbd,176.502374767369,186.07653746521,9.51955446263854,0,0.603823720623041,0,2,1
16,2,animal,0,0,tools,1,a_036.jpg,36,tbd,190.630514079156,199.937806850018,9.26491796981226,0,0.915084942731482,0,2,1
17,2,animal,0,0,tools,1,a_071.jpg,71,tbd,204.491785067637,213.34887463699,8.82591196402543,0,0.861505879527613,0,2,1
18,2,tool,1,0,tools,1,t_253.jpg,253,tbd,217.902698581187,224.17417971188,6.2235919066323,1,0.908629834853855,1,1,1
19,2,animal,0,0,tools,1,a_011.jpg,11,tbd,228.928342608577,235.149748703371,6.18293527843225,0,1.35749877974285,0,2,1
20,2,tool,1,0,tools,1,t_320.jpg,320,tbd,239.687095540494,247.326319606121,7.61272237988934,1,0.929427559946816,1,1,1
21,2,tool,1,0,tools,1,t_245.jpg,245,tbd,252.080484106492,259.78663108448,7.66546054166189,1,0.927529130874063,1,1,1
22,2,tool,1,0,tools,1,t_353.jpg,353,tbd,264.540623029548,272.530306916571,7.95451206979011,1,0.800361003954094,1,1,1
23,2,animal,0,0,tools,1,a_155.jpg,155,tbd,277.284306238537,284.656670319964,7.31893631626716,0,1.51547765037776,0,2,1
24,2,tool,1,0,tools,1,t_238.jpg,238,tbd,289.210680290325,296.01609082922,6.77276183825252,1,0.88345343875244,1,1,1
25,2,tool,0,0,tools,1,t_183.jpg,183,tbd,300.786730832992,310.427759673142,9.60801648909946,1,1.28734029507359,0,1,0
26,2,tool,1,0,tools,1,t_191.jpg,191,tbd,314.964952557577,323.721932788448,8.7170053384826,1,0.892720749047839,1,1,1
27,2,animal,0,0,tools,1,a_006.jpg,6,tbd,328.459268335707,337.666614380614,9.15150780440889,0,0.837447564815193,0,2,1
28,2,animal,0,0,tools,1,a_152.jpg,152,tbd,342.203770701286,348.909090504316,6.67921102369676,0,1.06144712091918,0,2,1
29,2,animal,0,0,tools,1,a_062.jpg,62,tbd,353.462923749822,360.852125764934,7.35801469678859,0,0.797843236051449,0,2,1
30,2,tool,0,0,tools,1,t_243.jpg,243,tbd,365.405983386282,372.611689514336,7.17140578540059,1,1.36979799577148,0,1,0
31,2,tool,0,0,tools,1,t_241.jpg,241,tbd,377.148832684883,386.773199033263,9.57310178997416,1,1.07776289840695,0,1,0
32,2,tool,0,0,tools,1,t_232.jpg,232,tbd,391.310350863648,398.966584135325,7.61169687483046,1,1.55785248604207,0,1,0
33,2,animal,0,0,tools,1,a_017.jpg,17,tbd,403.520314745706,410.442324559549,6.89177403189433,0,1.3025594804003,0,2,1
34,2,animal,0,0,tools,1,a_028.jpg,28,tbd,414.996261723118,423.90338399138,8.87527793273585,0,1.02897080156799,0,2,1
35,2,tool,0,0,tools,1,t_321.jpg,321,tbd,428.440501503145,434.595399074894,6.11006157464903,1,1.14637993179713,0,1,0
36,2,animal,0,0,tools,1,a_145.jpg,145,tbd,439.149246432729,447.839345767494,8.64993829746888,0,0.894937667741942,0,2,1
37,2,tool,1,0,tools,1,t_293.jpg,293,tbd,452.393303458088,458.831778351451,6.40695939321328,1,0.993938867611178,1,1,1
38,2,animal,0,0,tools,1,a_175.jpg,175,tbd,463.585742392594,470.074254475154,6.45468710533909,0,0.896840587101906,0,2,1
39,2,animal,0,0,tools,1,a_096.jpg,96,tbd,474.628089645068,480.782781946567,6.11437524292589,0,1.17275523445005,0,2,1
40,2,tool,1,0,tools,1,t_254.jpg,254,tbd,485.320121086055,492.225435051713,6.86414580618369,1,1.28652498730116,1,1,1
41,2,tool,1,0,tools,1,t_319.jpg,319,tbd,496.962916533289,506.403797899594,9.40001433245699,1,1.37971447323071,1,1,1
42,2,animal,0,0,tools,1,a_123.jpg,123,tbd,511.157779901883,519.664580280735,8.46159665869092,0,1.11739673477041,0,2,1
43,2,tool,0,0,tools,1,t_332.jpg,332,tbd,524.201644229795,532.508339151056,8.26562498519492,1,1.20313715578595,0,1,0
44,2,tool,0,0,tools,1,t_312.jpg,312,tbd,537.045459549434,545.05170585898,7.95481659734896,1,1.28128321903841,0,1,0
45,2,tool,1,0,tools,1,t_264.jpg,264,tbd,549.605721923302,557.144886043601,7.49605316517189,1,1.25657637863242,1,1,1
46,2,animal,0,0,tools,1,a_171.jpg,171,tbd,561.882395429102,569.405014125822,7.48196827679092,0,1.03182790685332,0,2,1
47,2,tool,0,0,tools,1,t_286.jpg,286,tbd,573.958846088389,581.915174522071,7.92407142813493,1,1.06519522738108,0,1,0
48,2,animal,0,0,tools,1,a_054.jpg,54,tbd,586.469024766518,595.442687310568,8.92438607467967,0,1.06415348086466,0,2,1
49,2,animal,0,0,tools,1,a_007.jpg,7,tbd,599.996681244191,608.586888057174,8.55844981865116,0,0.856445647142209,0,2,1
50,2,tool,1,0,tools,1,t_257.jpg,257,tbd,613.140697889042,623.015101362471,9.83246744780833,1,1.32583359861292,1,1,1
51,2,animal,0,0,tools,1,a_014.jpg,14,tbd,627.752587655069,634.62469049803,6.83402758994403,0,0.818624282935161,0,2,1
52,2,tool,1,0,tools,1,t_348.jpg,348,tbd,639.178513480023,649.119679177697,9.88441514820194,1,1.21724852323496,1,1,1
53,2,animal,0,0,tools,1,a_139.jpg,139,tbd,653.873833093819,663.281321480816,9.35763831535923,0,1.69710333302191,0,2,1
54,2,tool,1,0,tools,1,t_205.jpg,205,tbd,667.835191931554,675.608023836709,7.73829502164615,1,1.46189121027419,1,1,1
55,2,animal,0,0,tools,1,a_038.jpg,38,tbd,680.362009687815,688.651968027577,8.26636253519602,0,0.85439454832067,0,2,1
56,2,animal,0,0,tools,1,a_018.jpg,18,tbd,693.205788443692,701.428852095751,8.17404789319939,0,0.82998663271519,0,2,1
57,2,tool,1,0,tools,1,t_217.jpg,217,tbd,705.982842501291,713.488813460041,7.4825756597663,1,0.883475569451548,1,1,1
58,2,tool,0,0,tools,1,t_351.jpg,351,tbd,718.242821121112,727.600133120023,9.31565510776067,1,0.980720746482803,0,1,0
59,2,tool,1,0,tools,1,t_248.jpg,248,tbd,732.15409562164,738.54252947699,6.34945566408923,1,1.07172282131523,1,1,1
60,2,animal,0,0,tools,1,a_084.jpg,84,tbd,743.29650281944,751.319400074304,7.97645292494054,0,0.745306881566648,0,2,1
