trial,phase,object,toShock,seenBefore,shockedCategory,responseSide,filename,num,name,onsetFixationCross,onsetStimulus,interTrialTime,response,reactionTime,wasShocked,buttonPressed,isResponseCorrect
1,1,animal,0,0,tools,1,a_027.jpg,27,tbd,0.0183978803870559,6.85697816719494,6.77377224218279,animal,1.23646469919913,0,1,1
2,1,tool,0,0,tools,1,t_278.jpg,278,tbd,9.40916764702979,14.9969856274856,5.54184022890122,tool,0.82891184451546,0,2,1
3,1,animal,0,0,tools,1,a_114.jpg,114,tbd,17.5493056463702,25.3054888513507,7.7070131282836,animal,0.744572713687376,0,1,1
4,1,animal,0,0,tools,1,a_156.jpg,156,tbd,27.8576831422079,32.3443808282027,4.44475662503482,animal,0.698964230125057,0,1,1
5,1,tool,0,0,tools,1,t_334.jpg,334,tbd,34.896742221872,40.3842661206218,5.44879973633118,tool,0.626378745489092,0,2,1
6,1,animal,0,0,tools,1,a_012.jpg,12,tbd,42.9199323075754,48.0571573937814,5.08313796855628,animal,0.674823165843009,0,1,1
7,1,tool,0,0,tools,1,t_209.jpg,209,tbd,50.6095268058198,55.2797011347866,4.63759755731448,tool,0.636513643324179,0,2,1
8,1,animal,0,0,tools,1,a_003.jpg,3,tbd,57.8153378141424,62.719063821979,4.8737399935416,animal,0.498400763290192,0,1,1
9,1,tool,0,0,tools,1,t_314.jpg,314,tbd,65.2714518366347,71.9934459986207,6.69106078194914,tool,0.602403501081426,0,2,1
10,1,animal,0,0,tools,1,a_111.jpg,111,tbd,74.5289806843211,81.601106876773,7.01624075874083,animal,0.718095738113334,0,1,1
11,1,animal,0,0,tools,1,a_094.jpg,94,tbd,84.1534605728084,90.4084148825368,6.21536902429554,animal,0.876129454393777,0,1,1
12,1,animal,0,0,tools,1,a_129.jpg,129,tbd,92.9439421913385,98.7483687159747,5.76878402583481,animal,0.780448821546088,0,1,1
13,1,tool,0,0,tools,1,t_198.jpg,198,tbd,101.300771163695,108.473095217422,7.13214729746204,tool,0.77113211809683,0,2,1
14,1,tool,0,0,tools,1,t_316.jpg,316,tbd,111.025290149749,115.862444770527,4.80013216812272,tool,1.13805365129792,0,2,1
15,1,tool,0,0,tools,1,t_193.jpg,193,tbd,118.397968230511,124.235916028362,5.80061247772207,tool,0.904911871457443,0,2,1
16,1,animal,0,0,tools,1,a_134.jpg,134,tbd,126.788125393753,134.31078161644,7.48095875202597,animal,0.801397612712208,0,1,1
17,1,animal,0,0,tools,1,a_169.jpg,169,tbd,136.862994830649,141.383150925844,4.48216008477005,animal,0.71634067747982,0,1,1
18,1,animal,0,0,tools,1,a_173.jpg,173,tbd,143.935395572059,151.407845578329,7.43108426653948,animal,0.74202543818501,0,1,1
19,1,tool,0,0,tools,1,t_249.jpg,249,tbd,153.960189331587,158.363502714149,4.36429230639384,tool,0.919618201894991,0,2,1
20,1,tool,0,0,tools,1,t_340.jpg,340,tbd,160.915863466349,165.436060936328,4.48467022540855,tool,0.823360567205782,0,2,1
21,1,tool,0,0,tools,1,t_338.jpg,338,tbd,167.971591452478,173.726157833508,5.69825827024659,tool,0.67554481906518,0,2,1
22,1,animal,0,0,tools,1,a_163.jpg,163,tbd,176.278349879222,181.682464136492,5.36206410274361,animal,0.884490047509644,0,1,1
23,1,animal,0,0,tools,1,a_117.jpg,117,tbd,184.234826813101,188.421432223704,4.15678912476948,animal,0.954836162015454,0,1,1
24,1,tool,0,0,tools,1,t_346.jpg,346,tbd,190.956929704172,195.710690078738,4.72998767522893,tool,0.740856359967438,0,2,1
25,1,tool,0,0,tools,1,t_306.jpg,306,tbd,198.26290553809,204.617935829885,6.318063374268,tool,0.914954718414265,0,2,1
26,1,animal,0,0,tools,1,a_046.jpg,46,tbd,207.170123706047,214.575856390939,7.36870899295445,animal,0.6854096582274,0,1,1
27,1,animal,0,0,tools,1,a_142.jpg,142,tbd,217.12814177047,222.682463495023,5.52536051389299,animal,0.908010490020388,0,1,1
28,1,tool,0,0,tools,1,t_213.jpg,213,tbd,225.234822322814,229.488155959776,4.20367543172233,tool,0.718628478558458,0,2,1
29,1,animal,0,0,tools,1,a_109.jpg,109,tbd,232.023662100083,239.062614695806,6.99818107679155,animal,0.981554009397769,0,1,1
30,1,animal,0,0,tools,1,a_053.jpg,53,tbd,241.614789421842,248.603699696612,6.95038623055529,animal,0.948823347379403,0,1,1
31,1,tool,0,0,tools,1,t_331.jpg,331,tbd,251.155904571716,257.143811588142,5.95016390088508,tool,0.721019876965329,0,2,1
32,1,animal,0,0,tools,1,a_141.jpg,141,tbd,259.679519149881,266.985302222206,7.27055569247268,animal,0.716062921173943,0,1,1
33,1,animal,0,0,tools,1,a_039.jpg,39,tbd,269.537513191271,274.358084541766,4.77938870787768,animal,0.864415579310844,0,1,1
34,1,tool,0,0,tools,1,t_269.jpg,269,tbd,276.926829067224,282.848183619943,5.87913461304828,tool,0.919640653329225,0,2,1
35,1,animal,0,0,tools,1,a_164.jpg,164,tbd,285.383723758134,291.838668702408,6.40945409647375,animal,0.953442248728607,0,1,1
36,1,tool,0,0,tools,1,t_230.jpg,230,tbd,294.374363755491,298.944622790509,4.53927861510124,tool,0.651990699402631,0,2,1
37,1,animal,0,0,tools,1,a_162.jpg,162,tbd,301.480129572285,305.966968060842,4.45106266064134,animal,0.801719309681175,0,1,1
38,1,animal,0,0,tools,1,a_063.jpg,63,tbd,308.519218480283,314.6405383295,6.07956842418244,animal,0.765514769424044,0,1,1
39,1,animal,0,0,tools,1,a_090.jpg,90,tbd,317.192928589297,321.462919907008,4.22927528172558,animal,0.703386200328168,0,1,1
40,1,tool,0,0,tools,1,t_303.jpg,303,tbd,323.99843182054,330.62030285245,6.5944205971034,tool,0.764317466547254,0,2,1
41,1,tool,0,0,tools,1,t_218.jpg,218,tbd,333.172547498665,339.260712674502,6.03436957903291,tool,1.62329327705174,0,2,1
42,1,animal,0,0,tools,1,a_042.jpg,42,tbd,341.796226191709,347.05023754123,5.21428240730854,animal,0.87201122001261,0,1,1
43,1,tool,0,0,tools,1,t_227.jpg,227,tbd,349.585933877252,354.38970353709,4.7667612892439,tool,0.706817741576742,0,2,1
44,1,tool,0,0,tools,1,t_298.jpg,298,tbd,356.925200696824,361.011752897529,4.03423405809669,tool,0.700018164562607,0,2,1
45,1,tool,0,0,tools,1,t_342.jpg,342,tbd,363.563910624623,370.135799954451,6.52214979832345,tool,0.525292128179899,0,2,1
46,1,animal,0,0,tools,1,a_120.jpg,120,tbd,372.688026318784,377.541696214073,4.81904187330255,animal,0.559682592607714,0,1,1
47,1,tool,0,0,tools,1,t_285.jpg,285,tbd,380.094080379911,385.214600316624,5.0745874786681,tool,0.70408443991073,0,2,1
48,1,tool,0,0,tools,1,t_283.jpg,283,tbd,387.766935410044,393.021113862376,5.22367709317563,tool,0.83186292508708,0,2,1
49,1,tool,0,0,tools,1,t_308.jpg,308,tbd,395.573306870294,401.17776392888,5.56918344403109,tool,1.10655878032776,0,2,1
50,1,animal,0,0,tools,1,a_020.jpg,20,tbd,403.729970086923,409.584534511472,5.81803513248055,animal,0.994193204277508,0,1,1
51,1,tool,0,0,tools,1,t_200.jpg,200,tbd,412.136772422257,420.043077137604,7.8748058031108,tool,0.775897915967107,0,2,1
52,1,animal,0,0,tools,1,a_044.jpg,44,tbd,422.5952727114,427.065291227418,4.4308945196561,animal,0.734969273357819,0,1,1
53,1,animal,0,0,tools,1,a_048.jpg,48,tbd,429.634292340688,435.438932474679,5.7710028678196,animal,0.73470081835967,0,1,1
54,1,animal,0,0,tools,1,a_000.jpg,0,tbd,438.007814916086,443.99588133769,5.94451762814104,animal,0.479014591897794,0,1,1
55,1,tool,0,0,tools,1,t_206.jpg,206,tbd,446.548084288385,451.135011267664,4.55275615084147,tool,0.75513547169885,0,2,1
56,1,tool,0,0,tools,1,t_296.jpg,296,tbd,453.687197540152,459.141399983445,5.40414222504366,tool,0.680052104715287,0,2,1
57,1,tool,0,0,tools,1,t_318.jpg,318,tbd,461.69371198396,467.481642478171,5.75388904604273,tool,0.592007204413676,0,2,1
58,1,animal,0,0,tools,1,a_064.jpg,64,tbd,470.033817524943,475.354597192668,5.30404645624784,animal,0.641481183362885,0,1,1
59,1,tool,0,0,tools,1,t_274.jpg,274,tbd,477.890233551289,484.628746515869,6.70304884502612,tool,0.774721781584049,0,2,1
60,1,tool,0,0,tools,1,t_212.jpg,212,tbd,487.181164679592,495.137460398329,7.91504159595899,tool,0.692351641477217,0,2,1
