trial,phase,object,toShock,seenBefore,shockedCategory,responseSide,filename,num,name,onsetFixationCross,onsetStimulus,interTrialTime,response,reactionTime,wasShocked,buttonPressed,isResponseCorrect
1,1,tool,0,0,animals,1,t_185.jpg,185,tbd,0.0262873220657411,4.37953946032417,4.21608984885291,tool,1.22708416159878,0,2,1
2,1,tool,0,0,animals,1,t_218.jpg,218,tbd,6.96516489792668,12.5029777626622,5.49726939242174,tool,0.826830909428509,0,2,1
3,1,tool,0,0,animals,1,t_353.jpg,353,tbd,15.0551714120497,21.3768100074752,6.28349285770857,tool,0.71137152583583,0,2,1
4,1,animal,0,0,animals,1,a_099.jpg,99,tbd,23.9290530500166,30.9679876845922,7.00446826078882,animal,0.697519632811122,0,1,1
5,1,tool,0,0,animals,1,t_338.jpg,338,tbd,33.5201951255746,41.4431193542316,7.8804231523057,tool,0.650770295689654,0,2,1
6,1,animal,0,0,animals,1,a_028.jpg,28,tbd,43.9953665663248,48.6488893085044,4.59912280074991,animal,0.584289035099346,0,1,1
7,1,animal,0,0,animals,1,a_020.jpg,20,tbd,51.201182385669,58.6071546594316,7.36509021913995,animal,0.589563839042285,0,1,1
8,1,tool,0,0,animals,1,t_210.jpg,210,tbd,61.1426428385914,67.0973650325711,5.91169100952133,tool,0.708513137611362,0,2,1
9,1,tool,0,0,animals,1,t_184.jpg,184,tbd,69.6495631722454,74.8034565234458,5.10225542514913,tool,0.728877870771271,0,2,1
10,1,animal,0,0,animals,1,a_075.jpg,75,tbd,77.3558512735308,84.0444694551508,6.64925665801022,animal,0.706057912986353,0,1,1
11,1,tool,0,0,animals,1,t_207.jpg,207,tbd,86.5966704814379,90.6998752311349,4.07324380160529,tool,0.572898139925428,0,2,1
12,1,animal,0,0,animals,1,a_047.jpg,47,tbd,93.2354150485919,98.3061668925761,5.02847685996426,animal,0.515871177999088,0,1,1
13,1,animal,0,0,animals,1,a_029.jpg,29,tbd,100.858270415495,108.047181267588,7.13785339044744,animal,0.531244316013499,0,1,1
14,1,animal,0,0,animals,1,a_128.jpg,128,tbd,110.599513795128,114.969432594708,4.33576199324621,animal,0.571245393682148,0,1,1
15,1,tool,0,0,animals,1,t_194.jpg,194,tbd,117.505134703956,122.625657527281,5.06785764051204,tool,0.596323965681222,0,2,1
16,1,tool,0,0,animals,1,t_308.jpg,308,tbd,125.178000639069,132.951062511051,7.72151571217372,tool,0.631306506484179,0,2,1
17,1,tool,0,0,animals,1,t_303.jpg,303,tbd,135.503099000403,140.857299230627,5.31518307864767,tool,1.21937979181212,0,2,1
18,1,animal,0,0,animals,1,a_023.jpg,23,tbd,143.39285155674,149.530905742312,6.09079624460362,animal,0.710080889141864,0,1,1
19,1,animal,0,0,animals,1,a_067.jpg,67,tbd,152.083251740713,159.439061097252,7.32015086054027,animal,0.760312122870573,0,1,1
20,1,animal,0,0,animals,1,a_092.jpg,92,tbd,161.991304460528,167.979195440215,5.9378851273081,animal,0.543485479048968,0,1,1
21,1,tool,0,0,animals,1,t_201.jpg,201,tbd,170.514895625055,176.436249215568,5.89971045967925,tool,0.775772500741141,0,2,1
22,1,animal,0,0,animals,1,a_159.jpg,159,tbd,178.988454411407,186.160829782698,7.1285799475229,animal,0.578547562073709,0,1,1
23,1,tool,0,0,animals,1,t_285.jpg,285,tbd,188.713056147031,193.116464146349,4.37233322711013,tool,0.921261318163033,0,2,1
24,1,tool,0,0,animals,1,t_318.jpg,318,tbd,195.668669983658,199.788543960554,4.07663931656385,tool,0.646372059859232,0,2,1
25,1,tool,0,0,animals,1,t_215.jpg,215,tbd,202.340791493382,207.194600266825,4.81306802961532,tool,0.531592633967875,0,2,1
26,1,animal,0,0,animals,1,a_072.jpg,72,tbd,209.746833045853,214.90069047476,5.11234232138863,animal,0.607847003578172,0,1,1
27,1,tool,0,0,animals,1,t_350.jpg,350,tbd,217.453079130885,222.390305564176,4.89597018997218,tool,0.963427355494787,0,2,1
28,1,animal,0,0,animals,1,a_033.jpg,33,tbd,224.942492157399,232.114781892507,7.14620417434146,animal,0.607270001736424,0,1,1
29,1,tool,0,0,animals,1,t_208.jpg,208,tbd,234.650374951935,238.803473201654,4.11236274348062,tool,0.672896183443299,0,2,1
30,1,animal,0,0,animals,1,a_052.jpg,52,tbd,241.355830105036,248.411399968926,7.01023921326635,animal,0.554324389692511,0,1,1
31,1,animal,0,0,animals,1,a_164.jpg,164,tbd,250.963668349514,255.583919670861,4.58477027389992,animal,0.5801015220095,0,1,1
32,1,animal,0,0,animals,1,a_040.jpg,40,tbd,258.136129356987,262.839666836929,4.67061657251125,animal,0.577543341524915,0,1,1
33,1,tool,0,0,animals,1,t_298.jpg,298,tbd,265.392016042677,271.596951445092,6.16456664809779,tool,0.776673444695689,0,2,1
34,1,animal,0,0,animals,1,a_031.jpg,31,tbd,274.149163697096,279.903524807877,5.71673867695501,animal,0.521371458481553,0,1,1
35,1,animal,0,0,animals,1,a_056.jpg,56,tbd,282.455866957461,289.578055035686,7.08633260015216,animal,0.608229640152558,0,1,1
36,1,animal,0,0,animals,1,a_119.jpg,119,tbd,292.130426051398,299.886435097401,7.71488126867928,animal,0.691246060810499,0,1,1
37,1,tool,0,0,animals,1,t_225.jpg,225,tbd,302.438816697361,307.392676435558,4.90640761710532,tool,0.794277292999595,0,2,1
38,1,animal,0,0,animals,1,a_001.jpg,1,tbd,309.944872971558,317.717780890853,7.73401908526856,animal,0.586522952736686,0,1,1
39,1,animal,0,0,animals,1,a_013.jpg,13,tbd,320.253267466339,325.323963823209,5.04159020624228,animal,0.66868942626752,0,1,1
40,1,tool,0,0,animals,1,t_355.jpg,355,tbd,327.859476378211,332.296296280188,4.38995212196226,tool,0.769165685319877,0,2,1
41,1,tool,0,0,animals,1,t_197.jpg,197,tbd,334.815125816395,339.068474207157,4.21897339380004,tool,0.621682539129779,0,2,1
42,1,tool,0,0,animals,1,t_297.jpg,297,tbd,341.604031665026,347.291783542046,5.64765877087485,tool,0.567675936483965,0,2,1
43,1,animal,0,0,animals,1,a_085.jpg,85,tbd,349.844051922634,355.214770955452,5.33080045509892,animal,0.818999528675022,0,1,1
44,1,tool,0,0,animals,1,t_209.jpg,209,tbd,357.76714036749,363.188075880238,5.38957707545962,tool,0.76199149009949,0,2,1
45,1,animal,0,0,animals,1,a_148.jpg,148,tbd,365.740282038281,373.512974103079,7.72121663170622,animal,0.69370160617018,0,1,1
46,1,tool,0,0,animals,1,t_273.jpg,273,tbd,376.065377513002,383.938280589201,7.82718870419487,tool,0.661565586405459,0,2,1
47,1,animal,0,0,animals,1,a_095.jpg,95,tbd,386.490505991331,391.6278423725,5.08804726536436,animal,0.639282859351624,0,1,1
48,1,tool,0,0,animals,1,t_325.jpg,325,tbd,394.180051096421,400.61851219819,6.40559018833113,tool,0.559962265389231,0,2,1
49,1,tool,0,0,animals,1,t_304.jpg,304,tbd,403.170707771986,408.958612607415,5.75500001886232,tool,0.596180276506402,0,2,1
50,1,tool,0,0,animals,1,t_263.jpg,263,tbd,411.510805294599,417.665539933087,6.10541206663171,tool,0.548663100357999,0,2,1
51,1,animal,0,0,animals,1,a_026.jpg,26,tbd,420.217885290019,425.42218371319,5.16186827026095,animal,0.972236656546556,0,1,1
52,1,animal,0,0,animals,1,a_045.jpg,45,tbd,427.957498695577,432.36080405977,4.35934985054798,animal,0.722877564790224,0,1,1
53,1,tool,0,0,animals,1,t_182.jpg,182,tbd,434.896506489752,439.566843431245,4.63036957805571,tool,0.754106867374958,0,2,1
54,1,animal,0,0,animals,1,a_042.jpg,42,tbd,442.102369777842,449.157845345711,7.01119400583672,animal,0.851466867452018,0,1,1
55,1,animal,0,0,animals,1,a_046.jpg,46,tbd,451.710210908932,458.648856914293,6.90312127891846,animal,0.679815073790905,0,1,1
56,1,tool,0,0,animals,1,t_224.jpg,224,tbd,461.201241080131,468.523542634315,7.27808442023338,tool,1.00550294562277,0,2,1
57,1,tool,0,0,animals,1,t_321.jpg,321,tbd,471.059246026502,478.481806381569,7.37803179045309,tool,0.622669440001346,0,2,1
58,1,animal,0,0,animals,1,a_069.jpg,69,tbd,481.017339142861,485.170407564246,4.10298361444877,animal,0.638271261903128,0,1,1
59,1,animal,0,0,animals,1,a_062.jpg,62,tbd,487.722793654493,495.395524881005,7.63181555602157,animal,0.770542920400203,0,1,1
60,1,tool,0,0,animals,1,t_254.jpg,254,tbd,497.931083301078,503.685769316176,5.70594082850923,tool,0.672591806151559,0,2,1
