trial,phase,object,toShock,seenBefore,shockedCategory,responseSide,filename,num,name,onsetFixationCross,onsetStimulus,interTrialTime,response,reactionTime,wasShocked,buttonPressed,isResponseCorrect
1,3,animal,0,0,tools,1,a_006.jpg,6,tbd,0.0145805683741855,7.95425216758667,7.62970333697933,animal,1.01118396058246,0,1,1
2,3,tool,0,0,tools,1,t_336.jpg,336,tbd,10.5399351267806,16.6616120538147,6.08379843248466,tool,0.459184130188078,0,2,1
3,3,animal,0,0,tools,1,a_054.jpg,54,tbd,19.1971506445361,26.4194272850882,7.18883202601443,animal,0.481759825657718,0,1,1
4,3,animal,0,0,tools,1,a_037.jpg,37,tbd,28.9718468908259,34.0923813536656,5.09747804536708,animal,0.74819966731593,0,1,1
5,3,tool,0,0,tools,1,t_288.jpg,288,tbd,36.6447833188831,41.2317186859445,4.54825835769816,tool,0.54213755087676,0,2,1
6,3,animal,0,0,tools,1,a_052.jpg,52,tbd,43.7839304542877,51.4899489505333,7.66668149627276,animal,0.456302631499966,0,1,1
7,3,tool,0,0,tools,1,t_274.jpg,274,tbd,54.0257024348566,59.9135324649224,5.84628468586458,tool,0.565138222499627,0,2,1
8,3,animal,0,0,tools,1,a_015.jpg,15,tbd,62.4659302605623,69.1377392990516,6.62435724419466,animal,0.884376139225424,0,1,1
9,3,animal,0,0,tools,1,a_058.jpg,58,tbd,71.6901342080619,78.8792059382631,7.1613721375138,animal,0.589320808933735,0,1,1
10,3,animal,0,0,tools,1,a_014.jpg,14,tbd,81.4314420825976,85.9016462828376,4.43119112555969,animal,0.543188925843424,0,1,1
11,3,tool,0,0,tools,1,t_231.jpg,231,tbd,88.4372044384982,95.2926945851459,6.81698862787831,tool,0.63252436577568,0,2,1
12,3,tool,0,0,tools,1,t_352.jpg,352,tbd,97.8448909581266,104.349928769779,6.47232559076761,tool,0.462708705997102,0,2,1
13,3,animal,0,0,tools,1,a_136.jpg,136,tbd,106.902309566373,110.955340817034,4.01839729042381,animal,0.565750508897509,0,1,1
14,3,tool,0,0,tools,1,t_187.jpg,187,tbd,113.507715519631,117.994647743472,4.44220824723415,tool,0.676576591977209,0,2,1
15,3,tool,0,0,tools,1,t_196.jpg,196,tbd,120.530144959157,126.251367979586,5.68940423915821,tool,0.534162111612204,0,2,1
16,3,tool,0,0,tools,1,t_194.jpg,194,tbd,128.803574936878,133.824261813807,4.98380175247122,tool,0.514677997381114,0,2,1
17,3,animal,0,0,tools,1,a_036.jpg,36,tbd,136.376488656777,143.115183809996,6.69502363609005,animal,0.681133940022846,0,1,1
18,3,animal,0,0,tools,1,a_061.jpg,61,tbd,145.66742187875,152.656329840783,6.93703694472302,animal,0.585410386850526,0,1,1
19,3,tool,0,0,tools,1,t_350.jpg,350,tbd,155.208538722495,160.629532608612,5.38945630281492,tool,0.565552614341868,0,2,1
20,3,animal,0,0,tools,1,a_116.jpg,116,tbd,163.181741169588,169.803719589139,6.58115354943256,animal,0.50978259283238,0,1,1
21,3,animal,0,0,tools,1,a_045.jpg,45,tbd,172.355939375901,178.16053213328,5.76232632918566,animal,0.555328489936983,0,1,1
22,3,tool,0,0,tools,1,t_266.jpg,266,tbd,180.712713752372,187.484871367527,6.72684579750166,tool,0.596426410215827,0,2,1
23,3,tool,0,0,tools,1,t_223.jpg,223,tbd,190.037106228915,195.691598691923,5.61260113385763,tool,0.564993890976439,0,2,1
24,3,tool,0,0,tools,1,t_236.jpg,236,tbd,198.24381206395,205.63306616505,7.35164483479271,tool,0.537007687787082,0,2,1
25,3,animal,0,0,tools,1,a_016.jpg,16,tbd,208.168614698609,214.940702713897,6.72462942079985,animal,0.790791579234792,0,1,1
26,3,animal,0,0,tools,1,a_155.jpg,155,tbd,217.492915123714,221.712726902578,4.17500662591577,animal,0.681049265529509,0,1,1
27,3,animal,0,0,tools,1,a_160.jpg,160,tbd,224.265130150742,229.969719123429,5.65799955270585,animal,0.580413629499162,0,1,1
28,3,tool,0,0,tools,1,t_211.jpg,211,tbd,232.521894327787,237.19225491925,4.63863068758665,tool,0.747232325370533,0,2,1
29,3,tool,0,0,tools,1,t_224.jpg,224,tbd,239.744430123608,244.464833340982,4.67811584265563,tool,0.608967536681121,0,2,1
30,3,tool,0,0,tools,1,t_222.jpg,222,tbd,247.017098672358,251.687459584558,4.62529408262536,tool,0.525630194139012,0,2,1
31,3,animal,0,0,tools,1,a_179.jpg,179,tbd,254.239695408156,260.060802578482,5.78104464952625,animal,0.620650692422714,0,1,1
32,3,tool,0,0,tools,1,t_265.jpg,265,tbd,262.596511159665,269.785598605966,7.14869452823137,tool,0.87129264696614,0,2,1
33,3,tool,0,0,tools,1,t_287.jpg,287,tbd,272.321153874997,278.142477221871,5.77502946216227,tool,0.560742525760361,0,2,1
34,3,tool,0,0,tools,1,t_225.jpg,225,tbd,280.694697008633,287.499976784065,6.7588817386879,tool,0.798692286843107,0,2,1
35,3,animal,0,0,tools,1,a_103.jpg,103,tbd,290.069011514079,296.374044642975,6.26668089094546,animal,0.636025848541067,0,1,1
36,3,animal,0,0,tools,1,a_040.jpg,40,tbd,298.90961113779,304.930884321442,5.98076900585546,animal,0.445522670361242,0,1,1
37,3,animal,0,0,tools,1,a_111.jpg,111,tbd,307.483325416541,312.00351162345,4.47844391119843,animal,0.609246898363381,0,1,1
38,3,tool,0,0,tools,1,t_204.jpg,204,tbd,314.539072986478,321.311137267249,6.73665367962394,tool,0.681019757750619,0,2,1
39,3,tool,0,0,tools,1,t_304.jpg,304,tbd,323.863374053057,330.018268399173,6.12054105792925,tool,0.629243229135682,0,2,1
40,3,tool,0,0,tools,1,t_335.jpg,335,tbd,332.553826234098,338.174783748671,5.57693886005051,tool,0.502112494924404,0,2,1
41,3,animal,0,0,tools,1,a_129.jpg,129,tbd,340.710543006255,344.947171652791,4.19908148526854,animal,0.633025356531107,0,1,1
42,3,tool,0,0,tools,1,t_278.jpg,278,tbd,347.499400740918,355.339017627321,7.79763794867104,tool,0.622612318198662,0,2,1
43,3,animal,0,0,tools,1,a_033.jpg,33,tbd,357.87454082268,365.864129708767,7.93437804698342,animal,0.663980619532595,0,1,1
44,3,animal,0,0,tools,1,a_024.jpg,24,tbd,368.416546427874,376.12253060529,7.65942759557131,animal,0.603188823208257,0,1,1
45,3,animal,0,0,tools,1,a_059.jpg,59,tbd,378.658241110894,384.129289810916,5.43951562462566,animal,0.6326058329023,0,1,1
46,3,tool,0,0,tools,1,t_326.jpg,326,tbd,386.681486504634,392.969864417163,6.25117116437668,tool,0.624449498127433,0,2,1
47,3,tool,0,0,tools,1,t_229.jpg,229,tbd,395.522088373502,402.978055391503,7.42265211323583,tool,0.574696818212033,0,2,1
48,3,tool,0,0,tools,1,t_277.jpg,277,tbd,405.530296988361,411.268336555727,5.69742048523966,tool,0.63173759860274,0,2,1
49,3,animal,0,0,tools,1,a_159.jpg,159,tbd,413.820399502232,419.774945656567,5.91533625284716,animal,0.482445881500098,0,1,1
50,3,animal,0,0,tools,1,a_171.jpg,171,tbd,422.327122143871,430.116759268762,7.74415620643155,animal,0.669181365436998,0,1,1
51,3,animal,0,0,tools,1,a_092.jpg,92,tbd,432.652486452674,440.141806240654,7.43866635990653,animal,0.67453542349449,0,1,1
52,3,tool,0,0,tools,1,t_243.jpg,243,tbd,442.694022499311,450.700438837383,7.97781468048037,tool,0.495376382343238,0,2,1
53,3,tool,0,0,tools,1,t_319.jpg,319,tbd,453.252689094134,458.59026032174,5.30151173562716,tool,0.662872474166761,0,2,1
54,3,tool,0,0,tools,1,t_330.jpg,330,tbd,461.125798912462,466.413330721525,5.2593885842954,tool,0.548167080465646,0,2,1
55,3,animal,0,0,tools,1,a_019.jpg,19,tbd,468.965549546077,476.388166039257,7.38164557162162,animal,0.496701987204688,0,1,1
56,3,animal,0,0,tools,1,a_113.jpg,113,tbd,478.940388712649,486.012564738092,7.0429972196282,animal,0.862839630726739,0,1,1
57,3,animal,0,0,tools,1,a_028.jpg,28,tbd,488.564953232368,494.136049016541,5.541517521542,animal,0.751674528934018,0,1,1
58,3,tool,0,0,tools,1,t_268.jpg,268,tbd,496.688256615306,503.343584276732,6.62281984212353,tool,0.55356443797973,0,2,1
59,3,tool,0,0,tools,1,t_256.jpg,256,tbd,505.87910554767,513.868698282598,7.95229203214127,tool,0.54187807487142,0,2,1
60,3,animal,0,0,tools,1,a_099.jpg,99,tbd,516.421100568554,522.942791992888,6.47763922407129,animal,0.5611957267447,0,1,1
