trial,phase,object,toShock,seenBefore,shockedCategory,responseSide,filename,num,name,onsetFixationCross,onsetStimulus,interTrialTime,response,reactionTime,wasShocked,buttonPressed,isResponseCorrect
1,1,tool,0,0,animals,1,t_346.jpg,346,tbd,0.0182048491869864,5.85632377284924,5.67467118611125,tool,2.26306848433455,0,2,1
2,1,tool,0,0,animals,1,t_185.jpg,185,tbd,8.39170188174035,13.879502379009,5.46764681808872,tool,0.860152612023285,0,2,1
3,1,animal,0,0,animals,1,a_016.jpg,16,tbd,16.4149135236762,23.2038421766633,6.76486710875927,animal,0.580173767749329,0,1,1
4,1,animal,0,0,animals,1,a_119.jpg,119,tbd,25.7391779484431,29.825861259154,4.06696211383817,animal,0.765427495339509,0,1,1
5,1,animal,0,0,animals,1,a_132.jpg,132,tbd,32.3612653476359,38.1159532204911,5.72784195663219,animal,0.580681492347821,0,1,1
6,1,tool,0,0,animals,1,t_292.jpg,292,tbd,40.6513579504444,46.0057170050695,5.32318802490701,tool,0.995245202002707,0,2,1
7,1,animal,0,0,animals,1,a_106.jpg,106,tbd,48.5411275082654,53.6452944422119,5.07287261263797,animal,0.85997716960037,0,1,1
8,1,animal,0,0,animals,1,a_116.jpg,116,tbd,56.1806914745086,60.7844558851632,4.57598472665912,animal,0.600085680899383,0,1,1
9,1,tool,0,0,animals,1,t_244.jpg,244,tbd,63.3031643980016,70.3255591261332,6.99156569680463,tool,0.740392150266644,0,2,1
10,1,animal,0,0,animals,1,a_142.jpg,142,tbd,72.8609606487298,78.1986481828881,5.30308258715331,animal,0.985634677766484,0,1,1
11,1,tool,0,0,animals,1,t_256.jpg,256,tbd,80.7173669592685,87.5396165224265,6.79306377237741,tool,0.845037301127832,0,2,1
12,1,animal,0,0,animals,1,a_118.jpg,118,tbd,90.0749994423529,94.77886578281,4.68183743102559,animal,0.615065320597751,0,1,1
13,1,tool,0,0,animals,1,t_339.jpg,339,tbd,97.3142583248073,104.970524922879,7.63431227965541,tool,0.869828566340402,0,2,1
14,1,tool,0,0,animals,1,t_308.jpg,308,tbd,107.489223172176,113.310625030903,5.79924763630645,tool,0.54506219021755,0,2,1
15,1,tool,0,0,animals,1,t_294.jpg,294,tbd,115.84604066587,122.584874573534,6.71322165596605,tool,0.505197309749292,0,2,1
16,1,animal,0,0,animals,1,a_157.jpg,157,tbd,125.103587897408,131.825747077248,6.69214082116891,animal,1.00571465641815,0,1,1
17,1,animal,0,0,animals,1,a_025.jpg,25,tbd,134.361143788809,138.664681631772,4.27365329141395,animal,1.96509700928391,0,1,1
18,1,tool,0,0,animals,1,t_354.jpg,354,tbd,141.20007930554,147.0048186244,5.77433731312318,tool,0.875244188477609,0,2,1
19,1,tool,0,0,animals,1,t_267.jpg,267,tbd,149.540201865062,154.894571503965,5.32011062974786,tool,0.694814967147067,0,2,1
20,1,animal,0,0,animals,1,a_152.jpg,152,tbd,157.429986176725,164.685894448883,7.23086032926453,animal,0.639872943330602,0,1,1
21,1,tool,0,0,animals,1,t_230.jpg,230,tbd,167.204608414228,175.010970655683,7.77909964246248,tool,0.66023260350471,0,2,1
22,1,animal,0,0,animals,1,a_049.jpg,49,tbd,177.546373461222,182.75063494805,5.17327992867592,animal,0.629883309508159,0,1,1
23,1,tool,0,0,animals,1,t_280.jpg,280,tbd,185.28601915092,190.506960818078,5.18534547475367,tool,0.644871929805731,0,2,1
24,1,tool,0,0,animals,1,t_314.jpg,314,tbd,193.042344700212,199.430928177448,6.3616896996398,tool,0.825275492281207,0,2,1
25,1,animal,0,0,animals,1,a_082.jpg,82,tbd,201.966304682661,207.63762244449,5.64143938627421,animal,0.70491108521901,0,1,1
26,1,tool,0,0,animals,1,t_234.jpg,234,tbd,210.15633384395,216.161209347184,5.97616083126718,tool,1.75571722230393,0,2,1
27,1,animal,0,0,animals,1,a_001.jpg,1,tbd,218.679934538279,223.50054417985,4.78476988040368,animal,1.08064781510029,0,1,1
28,1,tool,0,0,animals,1,t_342.jpg,342,tbd,226.035944419504,232.174278043638,6.11667272100079,tool,0.920255273103066,0,2,1
29,1,animal,0,0,animals,1,a_159.jpg,159,tbd,234.692993612661,240.864707803804,6.14247676565263,animal,0.605161643940392,0,1,1
30,1,animal,0,0,animals,1,a_160.jpg,160,tbd,243.383422410621,249.388335439931,5.9785811345818,animal,0.654924107087709,0,1,1
31,1,animal,0,0,animals,1,a_144.jpg,144,tbd,251.907050046747,259.246363069386,7.3091789348411,animal,1.11028122703533,0,1,1
32,1,tool,0,0,animals,1,t_269.jpg,269,tbd,261.781771327432,269.23785780034,7.4279669138549,tool,0.985189175892174,0,2,1
33,1,tool,0,0,animals,1,t_341.jpg,341,tbd,271.756567596121,278.945776315514,7.16508289788116,tool,0.965664711456611,0,2,1
34,1,animal,0,0,animals,1,a_046.jpg,46,tbd,281.481179441789,286.90227525452,5.38877571922553,animal,0.830483919162361,0,1,1
35,1,animal,0,0,animals,1,a_003.jpg,3,tbd,289.437682229623,295.759500403277,6.30061873881721,animal,0.765615446454376,0,1,1
36,1,tool,0,0,animals,1,t_326.jpg,326,tbd,298.294894548953,305.734304690359,7.41368516957476,tool,0.94022395647039,0,2,1
37,1,tool,0,0,animals,1,t_261.jpg,261,tbd,308.25301897644,315.408881126805,7.1172215077696,tool,0.8350271402212,0,2,1
38,1,tool,0,0,animals,1,t_316.jpg,316,tbd,317.927573282124,324.115958352262,6.1571325004016,tool,0.810287834190603,0,2,1
39,1,animal,0,0,animals,1,a_004.jpg,4,tbd,326.651366289572,331.23846367006,4.55087173685988,animal,0.740099960052476,0,1,1
40,1,tool,0,0,animals,1,t_359.jpg,359,tbd,333.773844024101,339.345051196264,5.54687987358252,tool,0.604832248386174,0,2,1
41,1,tool,0,0,animals,1,t_293.jpg,293,tbd,341.86377702883,349.770232540224,7.87952631132067,tool,0.640073723872774,0,2,1
42,1,tool,0,0,animals,1,t_299.jpg,299,tbd,352.288962221618,357.643320634771,5.32290409639309,tool,0.650289155621522,0,2,1
43,1,animal,0,0,animals,1,a_093.jpg,93,tbd,360.162022732896,365.599810913914,5.415630437139,animal,0.940139602983891,0,1,1
44,1,animal,0,0,animals,1,a_052.jpg,52,tbd,368.118523917052,375.34110005329,7.18971858765616,animal,0.615241083756246,0,1,1
45,1,animal,0,0,animals,1,a_164.jpg,164,tbd,377.876481690274,382.513601009083,4.60167879869796,animal,0.740031001878833,0,1,1
46,1,tool,0,0,animals,1,t_249.jpg,249,tbd,385.032334860041,391.170677785509,6.11262764787457,tool,1.29533962659002,0,2,1
47,1,animal,0,0,animals,1,a_169.jpg,169,tbd,393.706092137533,399.77768387179,6.03664520079429,animal,0.825652356717683,0,1,1
48,1,animal,0,0,animals,1,a_000.jpg,0,tbd,402.313099186021,410.186206845446,7.84153567181619,animal,0.89057054345767,0,1,1
49,1,animal,0,0,animals,1,a_024.jpg,24,tbd,412.704911830192,417.542183049424,4.80029609088081,animal,0.854879075796816,0,1,1
50,1,tool,0,0,animals,1,t_242.jpg,242,tbd,420.060902467275,424.464527486199,4.37751875840584,tool,0.594827860721807,0,2,1
51,1,tool,0,0,animals,1,t_219.jpg,219,tbd,426.999896614491,434.155749142786,7.11514206197048,tool,0.944990409569755,0,2,1
52,1,tool,0,0,animals,1,t_231.jpg,231,tbd,436.691148740968,441.611877311334,4.89864239720507,tool,0.815153394618392,0,2,1
53,1,animal,0,0,animals,1,a_178.jpg,178,tbd,444.147219177092,451.519918860718,7.33629094910357,animal,1.02052911723604,0,1,1
54,1,tool,0,0,animals,1,t_313.jpg,313,tbd,454.038631222385,458.659070681599,4.59450675983578,tool,1.37568006828133,0,2,1
55,1,animal,0,0,animals,1,a_113.jpg,113,tbd,461.194466430953,465.798230520872,4.57326374710368,animal,1.33982213879722,0,1,1
56,1,tool,0,0,animals,1,t_324.jpg,324,tbd,468.317027877496,473.971553201504,5.6325263694803,tool,0.919816506678217,0,2,1
57,1,tool,0,0,animals,1,t_330.jpg,330,tbd,476.490268449792,481.777949761678,5.25399699012413,tool,0.805718633540664,0,2,1
58,1,animal,0,0,animals,1,a_092.jpg,92,tbd,484.296654425688,490.168116390284,5.83620717028616,animal,0.839906171547909,0,1,1
59,1,animal,0,0,animals,1,a_156.jpg,156,tbd,492.703512460373,499.759276209029,7.02569397900323,animal,0.985142348481077,0,1,1
60,1,animal,0,0,animals,1,a_168.jpg,168,tbd,502.277973496119,508.68322047543,6.37049685033087,animal,1.00556551432214,0,1,1
