trial,phase,object,toShock,seenBefore,shockedCategory,responseSide,filename,num,name,onsetFixationCross,onsetStimulus,interTrialTime,response,reactionTime,wasShocked,buttonPressed,isResponseCorrect
1,2,tool,0,0,animals,2,t_232.jpg,232,tbd,0.025200578021213,9.34916057482678,9.2195004255905,0,2.83662732844368,0,2,1
2,2,animal,0,0,animals,2,a_144.jpg,144,tbd,13.9362152480608,22.0594517337049,8.08719622453615,1,2.70969855603016,0,1,0
3,2,animal,1,0,animals,2,a_020.jpg,20,tbd,26.5967708679418,36.2042726375903,9.56228422349185,,4.50495304381639,1,,0
4,2,tool,0,0,animals,2,t_298.jpg,298,tbd,40.9250104149887,48.8311569883817,7.85620056579646,0,2.74596680618106,0,2,1
5,2,tool,0,0,animals,2,t_324.jpg,324,tbd,53.3850753764,63.4097680252789,9.98387483741639,1,1.23881877376971,0,1,0
6,2,tool,0,0,animals,2,t_196.jpg,196,tbd,67.9469184535701,75.8530127473641,7.86418478038259,0,1.58504250287115,0,2,1
7,2,animal,1,0,animals,2,a_085.jpg,85,tbd,80.3903254669267,86.678444751652,6.25023587014243,1,1.69195203767504,1,1,1
8,2,tool,0,0,animals,2,t_264.jpg,264,tbd,91.4159312447528,101.24040778324,9.79208376871593,0,1.24152384210083,0,2,1
9,2,animal,1,0,animals,2,a_103.jpg,103,tbd,105.794226423066,115.535183575926,9.69922804458539,1,1.60286343145253,1,1,1
10,2,animal,0,0,animals,2,a_170.jpg,170,tbd,120.255943163218,129.262930026926,8.95706684836708,0,1.07187654336849,0,2,1
11,2,animal,1,0,animals,2,a_021.jpg,21,tbd,133.800245633092,142.990756661362,9.14450219321599,0,1.64262960372889,1,2,0
12,2,tool,0,0,animals,2,t_286.jpg,286,tbd,147.744791090845,156.168063402447,8.39368323991597,0,1.74073435600894,0,2,1
13,2,tool,0,0,animals,2,t_287.jpg,287,tbd,160.705374839074,169.045306413739,8.29845025770257,1,1.02091099049267,0,1,0
14,2,animal,1,0,animals,2,a_154.jpg,154,tbd,173.582442088279,180.137462196681,6.51718767982382,1,0.831140536420207,1,1,1
15,2,tool,0,0,animals,2,t_359.jpg,359,tbd,184.891598619492,193.181359419479,8.25766686669533,0,1.43471043119735,0,2,1
16,2,animal,1,0,animals,2,a_050.jpg,50,tbd,197.718541279677,205.324542656908,7.569337392735,0,1.4889468267138,1,2,0
17,2,animal,0,0,animals,2,a_073.jpg,73,tbd,210.078607235363,218.118383350386,8.00481585153852,0,1.3445512157632,0,2,1
18,2,animal,0,0,animals,2,a_158.jpg,158,tbd,222.655545645825,231.829485324149,9.13508320634146,1,0.701900235969333,0,1,0
19,2,tool,0,0,animals,2,t_347.jpg,347,tbd,236.366636393908,243.188571117536,6.78205162432278,1,1.31586895994042,0,1,0
20,2,animal,1,0,animals,2,a_168.jpg,168,tbd,247.725805257333,257.750431835063,9.97974870564422,1,0.671858710572451,1,1,1
21,2,tool,0,0,animals,2,t_198.jpg,198,tbd,262.504466264547,270.093620460818,7.54148738395866,0,1.15409310856103,0,2,1
22,2,tool,0,0,animals,2,t_351.jpg,351,tbd,274.630953386606,283.788110030718,9.1077366768536,1,1.02407502879942,0,1,0
23,2,tool,0,0,animals,2,t_256.jpg,256,tbd,288.342073962926,296.748591785618,8.36979101858032,1,2.53407117678762,0,1,0
24,2,animal,1,0,animals,2,a_065.jpg,65,tbd,301.302548982419,310.843306382307,9.49882297379661,1,2.79387544581823,1,1,1
25,2,animal,1,0,animals,2,a_175.jpg,175,tbd,315.580805384024,324.754558716046,9.14534050560422,0,0.887999571697947,1,2,0
26,2,animal,0,0,animals,2,a_124.jpg,124,tbd,329.508690327852,336.49754739639,6.94724008689654,0,0.979523188445455,0,2,1
27,2,tool,0,0,animals,2,t_218.jpg,218,tbd,341.051408052335,347.206257979416,6.11295403525878,0,1.4661455446776,0,2,1
28,2,animal,0,0,animals,2,a_030.jpg,30,tbd,351.760088165657,359.716206017344,7.91336254709818,0,0.869537175643927,0,2,1
29,2,tool,0,0,animals,2,t_288.jpg,288,tbd,364.253525472315,373.477525272177,9.18440099888934,1,0.779704467152442,0,1,0
30,2,tool,0,0,animals,2,t_346.jpg,346,tbd,378.031233579598,387.889213643431,9.81297227486814,1,0.992580579577407,0,1,0
31,2,tool,0,0,animals,2,t_247.jpg,247,tbd,392.443031000322,401.016455131237,8.52984910023553,1,1.37782381281795,0,1,0
32,2,animal,0,0,animals,2,a_161.jpg,161,tbd,405.570271846661,414.727417906559,9.11390598038656,1,1.74997244981205,0,1,0
33,2,tool,0,0,animals,2,t_314.jpg,314,tbd,419.264712985766,425.502857143392,6.18711555455131,0,1.26726978056922,0,2,1
34,2,animal,1,0,animals,2,a_057.jpg,57,tbd,430.056805359648,436.328244244957,6.21812720944729,0,1.30022485122481,1,2,0
35,2,tool,0,0,animals,2,t_240.jpg,240,tbd,441.082410175272,448.454897186358,7.3311210577913,0,1.21497254122096,0,2,1
36,2,animal,1,0,animals,2,a_003.jpg,3,tbd,453.008797292553,459.280339133391,6.22139649178246,0,0.759908460224324,1,2,0
37,2,animal,1,0,animals,2,a_097.jpg,97,tbd,464.034313264932,470.55597674404,6.47297420138361,0,1.46568593323354,1,2,0
38,2,animal,1,0,animals,2,a_136.jpg,136,tbd,475.310097450899,483.549816731904,8.18446533310819,0,1.36124733113229,1,2,0
39,2,tool,0,0,animals,2,t_319.jpg,319,tbd,488.30398009635,496.426954221796,8.0823653685508,0,0.940231060631049,0,2,1
40,2,animal,1,0,animals,2,a_068.jpg,68,tbd,500.947503471905,508.320041158921,7.34195120845975,0,1.03891249216849,1,2,0
41,2,tool,0,0,animals,2,t_280.jpg,280,tbd,513.057368888822,519.845883798611,6.73875122954598,0,0.954455922562374,0,2,1
42,2,tool,0,0,animals,2,t_268.jpg,268,tbd,524.383123711616,530.654806996031,6.22927029230111,0,2.04295918971729,0,2,1
43,2,tool,0,0,animals,2,t_308.jpg,308,tbd,535.208638465207,543.898681061854,8.64840541587972,0,1.29350291358242,0,2,1
44,2,animal,1,0,animals,2,a_101.jpg,101,tbd,548.452695669993,556.47571408877,7.9793363135185,0,1.65194531509587,1,2,0
45,2,animal,1,0,animals,2,a_012.jpg,12,tbd,561.21290101656,569.402729202705,8.15028909973158,0,1.15532953711318,1,2,0
46,2,tool,0,0,animals,2,t_197.jpg,197,tbd,574.140152190525,581.879459489046,7.70563113673142,1,1.34190131363539,0,1,0
47,2,animal,1,0,animals,2,a_022.jpg,22,tbd,586.400095337263,595.590547671259,9.14247884274655,0,1.80610021217126,1,2,0
48,2,animal,1,0,animals,2,a_046.jpg,46,tbd,600.31132682331,609.718669893906,9.36121726890164,0,1.08781348198318,1,2,0
49,2,animal,0,0,animals,2,a_146.jpg,146,tbd,614.456166650485,620.560942343744,6.05722156207997,0,1.20554970478588,0,2,1
50,2,tool,0,0,animals,2,t_214.jpg,214,tbd,625.098103356248,634.071808321623,8.93202811665726,0,1.31350258643488,0,2,1
51,2,animal,1,0,animals,2,a_113.jpg,113,tbd,638.625622471177,645.597723447138,6.93300920262698,1,2.78768977498203,1,1,1
52,2,animal,0,0,animals,2,a_131.jpg,131,tbd,650.318518956609,657.840973685844,7.47660800512049,1,1.97983718677369,0,1,0
53,2,tool,0,0,animals,2,t_204.jpg,204,tbd,662.378285763939,671.068382885322,8.64191837181724,0,1.45408788060013,0,2,1
54,2,tool,0,0,animals,2,t_285.jpg,285,tbd,675.60562311906,682.894578235901,7.24938711492725,0,1.22240201748446,0,2,1
55,2,tool,0,0,animals,2,t_219.jpg,219,tbd,687.43191468976,694.237127318586,6.77392263410731,0,0.775163839650304,0,2,1
56,2,animal,1,0,animals,2,a_179.jpg,179,tbd,698.774375249935,705.09593070592,6.26555349364715,1,0.985821436821425,1,1,1
57,2,animal,0,0,animals,2,a_098.jpg,98,tbd,709.849776223233,716.338382638357,6.44420798802159,1,0.655700144944603,0,1,0
58,2,tool,0,0,animals,2,t_291.jpg,291,tbd,720.89232636434,727.263855343755,6.32317089914235,0,0.787644230791557,0,2,1
59,2,tool,0,0,animals,2,t_238.jpg,238,tbd,731.80119147688,737.855927896292,6.02448410899111,0,0.975596766047602,0,2,1
60,2,tool,0,0,animals,2,t_345.jpg,345,tbd,742.376395680032,751.917316012658,9.50639945975899,0,0.848053147061364,0,2,1
