trial,phase,object,toShock,seenBefore,shockedCategory,responseSide,filename,num,name,onsetFixationCross,onsetStimulus,interTrialTime,response,reactionTime,wasShocked,buttonPressed,isResponseCorrect
1,3,tool,0,0,animals,2,t_197.jpg,197,tbd,0.0144532008730494,7.95410036595422,7.85972113627949,tool,0.79353324611975,0,1,1
2,3,tool,0,0,animals,2,t_350.jpg,350,tbd,10.5229693749325,17.0783575420946,6.49589399363324,tool,0.723638203667178,0,1,1
3,3,tool,0,0,animals,2,t_224.jpg,224,tbd,19.6305415597067,24.6176938501444,4.93932771152675,tool,0.517627745117807,0,1,1
4,3,animal,0,0,animals,2,a_103.jpg,103,tbd,27.1701107218682,33.2247178976236,6.01352668171926,animal,0.558938181344274,0,2,1
5,3,animal,0,0,animals,2,a_156.jpg,156,tbd,35.7771136007918,40.6476120753728,4.80940236376457,animal,0.652339942567778,0,2,1
6,3,animal,0,0,animals,2,a_178.jpg,178,tbd,43.1831601741801,48.754238731331,5.51983514029957,animal,0.612054898344923,0,2,1
7,3,tool,0,0,animals,2,t_295.jpg,295,tbd,51.3064397479352,57.4446425119072,6.09503918965491,tool,0.603997376322695,0,1,1
8,3,tool,0,0,animals,2,t_274.jpg,274,tbd,59.9968836204721,65.7013879042179,5.65714721093128,tool,0.544600333762901,0,1,1
9,3,animal,0,0,animals,2,a_019.jpg,19,tbd,68.2536274091049,74.6919977254015,6.40230853894013,animal,0.668330541163414,0,2,1
10,3,animal,0,0,animals,2,a_101.jpg,101,tbd,77.2442721904786,85.2006258362171,7.91051372089352,animal,0.523141191640661,0,2,1
11,3,animal,0,0,animals,2,a_171.jpg,171,tbd,87.7361643129534,94.82512099824,7.05849251833807,animal,0.780068761824168,0,2,1
12,3,tool,0,0,animals,2,t_201.jpg,201,tbd,97.3606771154391,102.865064458952,5.4648477025539,tool,0.909427559860887,0,1,1
13,3,animal,0,0,animals,2,a_087.jpg,87,tbd,105.417266437763,110.888372000859,5.4274439019394,animal,0.63044331696392,0,2,1
14,3,tool,0,0,animals,2,t_258.jpg,258,tbd,113.440476155285,119.094901730492,5.60948673914106,tool,0.568254270215675,0,1,1
15,3,animal,0,0,animals,2,a_140.jpg,140,tbd,121.647164328348,126.300823665991,4.60773665346514,animal,0.581601685984424,0,2,1
16,3,animal,0,0,animals,2,a_074.jpg,74,tbd,128.85306445382,135.808601185755,6.91461270633274,animal,0.647249867156461,0,2,1
17,3,tool,0,0,animals,2,t_348.jpg,348,tbd,138.360788410724,145.433100517342,7.02280552393943,tool,0.761121942367481,0,1,1
18,3,tool,0,0,animals,2,t_216.jpg,216,tbd,147.985339060021,154.490467944451,6.4658601084563,tool,0.634105797816119,0,1,1
19,3,tool,0,0,animals,2,t_336.jpg,336,tbd,157.042723806858,161.212789416551,4.12143050503085,tool,0.607011329608667,0,1,1
20,3,animal,0,0,animals,2,a_120.jpg,120,tbd,163.764861497407,169.402662700295,5.60612765263125,animal,0.641533074205199,0,2,1
21,3,animal,0,0,animals,2,a_004.jpg,4,tbd,171.954893545317,179.694348076543,7.6902920065463,animal,0.568266458172275,0,2,1
22,3,animal,0,0,animals,2,a_035.jpg,35,tbd,182.246550055354,187.934417137352,5.65116735719162,animal,0.757540607645296,0,2,1
23,3,tool,0,0,animals,2,t_283.jpg,283,tbd,190.4699844803,195.323835168856,4.80785000007814,tool,1.09535515313701,0,1,1
24,3,tool,0,0,animals,2,t_188.jpg,188,tbd,197.876033619574,205.799049997621,7.86858821907045,tool,0.766626729027394,0,1,1
25,3,animal,0,0,animals,2,a_146.jpg,146,tbd,208.351260957032,215.206679080908,6.81504022062711,animal,0.710391498905665,0,2,1
26,3,animal,0,0,animals,2,a_091.jpg,91,tbd,217.758913774759,225.598518666876,7.79693486777595,animal,0.742965736388669,0,2,1
27,3,tool,0,0,animals,2,t_308.jpg,308,tbd,228.134075104811,236.023643561354,7.84409907572015,tool,0.740264821137316,0,1,1
28,3,tool,0,0,animals,2,t_320.jpg,320,tbd,238.575870236813,245.064403935871,6.4520520312193,tool,0.648871186072938,0,1,1
29,3,tool,0,0,animals,2,t_269.jpg,269,tbd,247.616616819695,252.286923301892,4.63649847271579,tool,0.51364869813915,0,1,1
30,3,animal,0,0,animals,2,a_147.jpg,147,tbd,254.839190710783,262.578639148031,7.68381212547596,animal,0.670355345578628,0,2,1
31,3,tool,0,0,animals,2,t_192.jpg,192,tbd,265.130894689702,270.835386144021,5.65432913116643,tool,0.538917859530557,0,1,1
32,3,animal,0,0,animals,2,a_158.jpg,158,tbd,273.387630780679,279.592531814474,6.17140946051777,animal,1.00816123120694,0,2,1
33,3,animal,0,0,animals,2,a_154.jpg,154,tbd,282.144785752466,286.214592592604,4.02281691431977,animal,0.542351976570899,0,2,1
34,3,animal,0,0,animals,2,a_095.jpg,95,tbd,288.750176613808,294.971602912596,6.17488680332206,animal,0.649705740340323,0,2,1
35,3,tool,0,0,animals,2,t_341.jpg,341,tbd,297.540691304786,305.296884069502,7.69706418460949,animal,0.560784977451021,0,2,0
36,3,animal,0,0,animals,2,a_049.jpg,49,tbd,307.849090217877,313.970602858712,6.06733164919497,animal,0.639458235022175,0,2,1
37,3,tool,0,0,animals,2,t_268.jpg,268,tbd,316.522850061255,323.128081196223,6.55811215000886,tool,0.844378192223758,0,1,1
38,3,tool,0,0,animals,2,t_241.jpg,241,tbd,325.680343473344,330.951105336075,5.2147227951634,tool,0.872678626627476,0,1,1
39,3,tool,0,0,animals,2,t_264.jpg,264,tbd,333.503393913522,338.690737234137,5.14931947367261,tool,0.764352712980326,0,1,1
40,3,animal,0,0,animals,2,a_026.jpg,26,tbd,341.243013302892,345.980036978318,4.68490790465016,animal,0.874372752546151,0,2,1
41,3,animal,0,0,animals,2,a_161.jpg,161,tbd,348.532281614976,355.387725076971,6.81407895156718,animal,0.878062816667352,0,2,1
42,3,animal,0,0,animals,2,a_043.jpg,43,tbd,357.939963619651,363.577734352647,5.59353712617593,animal,0.666376298599971,0,2,1
43,3,tool,0,0,animals,2,t_212.jpg,212,tbd,366.129997591976,373.335700144262,7.15562744403237,tool,1.72483358558657,0,1,1
44,3,tool,0,0,animals,2,t_286.jpg,286,tbd,375.887940611356,383.877610997701,7.94618750763881,tool,0.893308025517399,0,1,1
45,3,animal,0,0,animals,2,a_152.jpg,152,tbd,386.413191811549,390.499672738039,4.04641787216213,animal,0.645546439903228,0,2,1
46,3,animal,0,0,animals,2,a_099.jpg,99,tbd,393.05196099475,399.857164097419,6.74678889046184,animal,0.62640365093921,0,2,1
47,3,animal,0,0,animals,2,a_130.jpg,130,tbd,402.392903675433,406.996342539362,4.54331919255507,animal,0.836533317964495,0,2,1
48,3,tool,0,0,animals,2,t_354.jpg,354,tbd,409.532059024407,414.51930464893,4.94527120888921,tool,0.619863850206457,0,1,1
49,3,animal,0,0,animals,2,a_082.jpg,82,tbd,417.071538701311,425.061080151908,7.92913966226623,animal,1.64856552495939,0,2,1
50,3,tool,0,0,animals,2,t_229.jpg,229,tbd,427.59679535401,435.469708968342,7.81592906971159,tool,0.651308135850741,0,1,1
51,3,tool,0,0,animals,2,t_340.jpg,340,tbd,438.021957133093,443.442759151931,5.36379344689355,tool,0.60757293780307,0,1,1
52,3,tool,0,0,animals,2,t_218.jpg,218,tbd,445.978454789156,452.5670111963,6.56023265873674,tool,0.735729939206522,0,1,1
53,3,animal,0,0,animals,2,a_077.jpg,77,tbd,455.102578218513,462.641904904493,7.49311928965047,animal,0.783218707042579,0,2,1
54,3,tool,0,0,animals,2,t_271.jpg,271,tbd,465.194113298017,471.715977208581,6.47463615756452,tool,0.605500023034438,0,1,1
55,3,tool,0,0,animals,2,t_254.jpg,254,tbd,474.268210619489,481.52396910808,7.21926213956051,tool,0.701536627957012,0,1,1
56,3,tool,0,0,animals,2,t_242.jpg,242,tbd,484.059518169095,491.181870495968,7.08360241010848,tool,0.732395570965764,0,1,1
57,3,animal,0,0,animals,2,a_054.jpg,54,tbd,493.750709035055,499.455271692697,5.66447876907844,animal,0.62636612486358,0,2,1
58,3,animal,0,0,animals,2,a_153.jpg,153,tbd,502.007527234368,506.627786440124,4.56586612790531,animal,0.670114473075046,0,2,1
59,3,animal,0,0,animals,2,a_033.jpg,33,tbd,509.180047434302,514.033842314847,4.81798995204256,animal,0.896377466077865,0,2,1
60,3,tool,0,0,animals,2,t_265.jpg,265,tbd,516.586062575592,521.790254462775,5.1601944028666,tool,0.731269147220246,0,1,1
