trial,phase,object,toShock,seenBefore,shockedCategory,responseSide,filename,num,name,onsetFixationCross,onsetStimulus,interTrialTime,response,reactionTime,wasShocked,buttonPressed,isResponseCorrect
1,1,tool,0,0,animals,2,wateringcan.jpg,123,(unused),0.0235104548235086,4.309842110923,4.07720543856715,tool,2.40974829677043,0,1,1
2,1,animal,0,0,animals,2,highlandcow.jpg,178,(unused),6.89533388854284,11.7322484496865,4.78530707503803,animal,0.870583261579441,0,2,1
3,1,tool,0,0,animals,2,drill.jpg,124,(unused),14.3008794727821,19.8215688492462,5.45689389581749,tool,0.63258583259676,0,1,1
4,1,tool,0,0,animals,2,pruner.jpg,135,(unused),22.3736046869694,27.5106624245254,5.08787938865507,tool,0.438793158713224,0,1,1
5,1,tool,0,0,animals,2,binoculars.jpg,144,(unused),30.0626600947014,35.2831658820562,5.1742716649135,tool,1.02662053363269,0,1,1
6,1,animal,0,0,animals,2,gecko.jpg,122,(unused),37.8351436666194,44.5233484832997,6.63838126742157,animal,0.61485235625787,0,2,1
7,1,tool,0,0,animals,2,oven.jpg,128,(unused),47.0920327485198,51.7287713540638,4.58177373379851,tool,0.60367696258686,0,1,1
8,1,tool,0,0,animals,2,camera.jpg,133,(unused),54.2807273285998,61.2858244601964,6.93684531348657,tool,0.751012996087184,0,1,1
9,1,tool,0,0,animals,2,dremel.jpg,165,(unused),63.8545507417921,70.7595632633136,6.85502979392099,tool,0.606649540968419,0,1,1
10,1,animal,0,0,animals,2,brown_bear.jpg,129,(unused),73.3115737629171,79.9330754987386,6.55922040947031,animal,0.50252045383354,0,2,1
11,1,tool,0,0,animals,2,saw.jpg,163,(unused),82.485012549869,86.6380474151215,4.08615300929888,tool,0.759826812867686,0,1,1
12,1,animal,0,0,animals,2,bluejay.jpg,139,(unused),89.1900999311006,93.960185682995,4.7055563526629,animal,0.841937394835895,0,2,1
13,1,tool,0,0,animals,2,crutches.jpg,121,(unused),96.5122170304182,103.984340287861,7.40793965279021,tool,1.16825869758736,0,1,1
14,1,animal,0,0,animals,2,aardvark.jpg,175,(unused),106.553029364117,114.008475007115,7.39889082071289,animal,0.635568674520073,0,2,1
15,1,tool,0,0,animals,2,glove.jpg,150,(unused),116.577137783044,122.264617095592,5.62916735624598,tool,0.779753800595017,0,1,1
16,1,tool,0,0,animals,2,chainsaw.jpg,179,(unused),124.816595521626,129.219853939655,4.34241531677116,tool,0.599739290512389,0,1,1
17,1,animal,0,0,animals,2,crab.jpg,143,(unused),131.788492981143,136.291740109276,4.44419761124284,animal,0.648786513069581,0,2,1
18,1,tool,0,0,animals,2,tape.jpg,126,(unused),138.827058882064,145.531983971036,6.64681652231121,tool,0.647269112516824,0,1,1
19,1,animal,0,0,animals,2,waterbuffalo.jpg,173,(unused),148.083986452247,153.004201524772,4.86588176576802,animal,0.531383137903731,0,2,1
20,1,animal,0,0,animals,2,penguin.jpg,164,(unused),155.55623030631,162.661410123568,7.04557003351687,animal,0.573548976216898,0,2,1
21,1,tool,0,0,animals,2,telephone.jpg,138,(unused),165.213409718158,172.685568577263,7.40459955291838,tool,0.748804410121011,0,1,1
22,1,animal,0,0,animals,2,palmcockatoo.jpg,160,(unused),175.254255408368,182.843215301011,7.53081305439264,animal,0.709511080653783,0,2,1
23,1,animal,0,0,animals,2,springhare.jpg,169,(unused),185.395097827075,189.698221920996,4.2521366555603,animal,0.639832214056696,0,2,1
24,1,tool,0,0,animals,2,smartphone.jpg,176,(unused),192.250200667766,198.855017091486,6.54173968462444,tool,0.59337429073048,0,1,1
25,1,animal,0,0,animals,2,fly.jpg,147,(unused),201.407060947602,206.444089562357,4.97361186469865,animal,0.637574234794101,0,2,1
26,1,animal,0,0,animals,2,giraffe.jpg,171,(unused),208.979366960241,215.317345401671,6.2652925813243,animal,0.628755606978302,0,2,1
27,1,animal,0,0,animals,2,angelfish.jpg,132,(unused),217.885994706701,224.023810984166,6.074259514557,animal,0.496592616797898,0,2,1
28,1,tool,0,0,animals,2,hairbrush.jpg,131,(unused),226.592529247369,231.512706473082,4.86115498259103,tool,0.713063549163962,0,1,1
29,1,tool,0,0,animals,2,corkscrew.jpg,151,(unused),234.064764762304,239.151814032438,5.03196338613701,tool,0.625341375550988,0,1,1
30,1,animal,0,0,animals,2,lobsterspiny.jpg,155,(unused),241.70376583741,248.108484885774,6.3464734634025,animal,0.581949043956456,0,2,1
31,1,tool,0,0,animals,2,caulkinggun.jpg,156,(unused),250.660451444588,255.747466396003,5.02710057239179,tool,0.675281205535384,0,1,1
32,1,tool,0,0,animals,2,beadingtool.jpg,154,(unused),258.299445463509,262.502492003541,4.13225335778221,tool,0.71652973977325,0,1,1
33,1,animal,0,0,animals,2,earthworm.jpg,137,(unused),265.071146761077,271.359181523694,6.22264350297969,animal,0.780202189090687,0,2,1
34,1,tool,0,0,animals,2,ladder.jpg,158,(unused),273.911132045724,280.782766245386,6.80653905723004,tool,0.640186626995046,0,1,1
35,1,tool,0,0,animals,2,lantern.jpg,140,(unused),283.334796309866,291.273935429614,7.88925957503928,tool,0.668259659794558,0,1,1
36,1,animal,0,0,animals,2,beetle.jpg,125,(unused),293.842600450692,298.395869196411,4.49121906798256,animal,0.641601392126631,0,2,1
37,1,tool,0,0,animals,2,pencil.jpg,161,(unused),300.947905996341,307.619480667458,6.60674421052684,tool,0.648376612856737,0,1,1
38,1,tool,0,0,animals,2,magnet.jpg,180,(unused),310.17147416807,316.859717152298,6.62982381249195,tool,0.683508396737352,0,1,1
39,1,animal,0,0,animals,2,deer.jpg,142,(unused),319.411626940895,326.166593212329,6.69194953630012,animal,0.473010204403636,0,2,1
40,1,tool,0,0,animals,2,electricdrill.jpg,157,(unused),328.718655671115,333.839095130329,5.05944679621638,tool,0.64682168622835,0,1,1
41,1,animal,0,0,animals,2,prairiedog.jpg,152,(unused),336.390993693176,342.228593345755,5.78053365649166,animal,0.537653841392512,0,2,1
42,1,animal,0,0,animals,2,duck.jpg,149,(unused),344.780578827975,352.169367896789,7.32779640962678,animal,0.445204665170195,0,2,1
43,1,animal,0,0,animals,2,chimp.jpg,141,(unused),354.721330606775,360.809088061314,6.02997013133986,animal,0.460891527066451,0,2,1
44,1,tool,0,0,animals,2,jumpercables.jpg,167,(unused),363.361092787675,370.866588914471,7.43822269675997,tool,0.562847950632658,0,1,1
45,1,animal,0,0,animals,2,stickinsect.jpg,162,(unused),373.43529114089,378.422253876535,4.92456862401347,animal,0.711482001472859,0,2,1
46,1,animal,0,0,animals,2,lemur.jpg,127,(unused),380.974219473141,385.477479751437,4.45010055191701,animal,0.634537830010231,0,2,1
47,1,tool,0,0,animals,2,typewriter.jpg,136,(unused),388.029489288834,394.534244195448,6.44274136540637,tool,0.595141544386252,0,1,1
48,1,animal,0,0,animals,2,octopus.jpg,170,(unused),397.102914348298,402.473484026203,5.31193291205138,animal,0.776295628377738,0,2,1
49,1,animal,0,0,animals,2,moth.jpg,159,(unused),405.025488111092,412.914573860421,7.82013258574325,animal,0.494586415052709,0,2,1
50,1,tool,0,0,animals,2,wheeldolly.jpg,148,(unused),415.466598472395,421.871379743483,6.33162216519442,tool,0.710094819610731,0,1,1
51,1,animal,0,0,animals,2,mink.jpg,134,(unused),424.423281513687,431.545151133346,7.06719966593606,animal,0.646736049798847,0,2,1
52,1,tool,0,0,animals,2,measuringdevice.jpg,145,(unused),434.097146237637,439.017388572695,4.87153929266276,tool,0.516798323840703,0,1,1
53,1,animal,0,0,animals,2,otter.jpg,146,(unused),441.586083422193,447.123384983021,5.48442182627066,animal,0.673192253981824,0,2,1
54,1,animal,0,0,animals,2,shrimp.jpg,177,(unused),449.675440064886,455.996713950073,6.26328685446217,animal,0.545165150532966,0,2,1
55,1,animal,0,0,animals,2,elephantafrican.jpg,153,(unused),458.548744976761,465.904064634779,7.31172977326649,animal,0.548226251964934,0,2,1
56,1,tool,0,0,animals,2,faxmachine.jpg,174,(unused),468.456084435718,473.492964229113,4.9920735294212,tool,0.647590810414613,0,1,1
57,1,tool,0,0,animals,2,carpetblower.jpg,168,(unused),476.045074798252,480.148043142922,4.04720898413601,tool,0.778838100197845,0,1,1
58,1,animal,0,0,animals,2,sparrow.jpg,172,(unused),482.716766217161,488.104026018202,5.32707657409565,animal,0.539153280746632,0,2,1
59,1,animal,0,0,animals,2,dog.jpg,130,(unused),490.655995463637,495.02585374978,4.31036243562068,animal,0.563622527325606,0,2,1
60,1,tool,0,0,animals,2,ruler.jpg,166,(unused),497.577804271809,504.216079522047,6.57777389778961,tool,0.5407604872928,0,1,1
