trial,phase,object,toShock,seenBefore,shockedCategory,responseSide,filename,num,name,onsetFixationCross,onsetStimulus,interTrialTime,response,reactionTime,wasShocked,buttonPressed,isResponseCorrect
1,1,animal,0,0,animals,2,penguin.jpg,164,(unused),0.0171380367748952,7.32250094655774,7.06687812748827,animal,1.09817541249959,0,2,1
2,1,animal,0,0,animals,2,springhare.jpg,169,(unused),9.90792432125841,15.9456048829034,5.97266964531961,animal,0.814374859488908,0,2,1
3,1,tool,0,0,animals,2,typewriter.jpg,136,(unused),18.4976506735643,24.5520947584296,5.97835764358975,tool,0.693190039608453,0,1,1
4,1,animal,0,0,animals,2,duck.jpg,149,(unused),27.1040289333921,33.3919304011065,6.21626275217491,animal,0.563680228171734,0,2,1
5,1,animal,0,0,animals,2,giraffe.jpg,171,(unused),35.9439396280043,40.5973299067259,4.58802370367782,animal,0.689602941998373,0,2,1
6,1,tool,0,0,animals,2,camera.jpg,133,(unused),43.1492721000579,48.4531051050124,5.23408162147019,tool,0.599050216570731,0,1,1
7,1,tool,0,0,animals,2,oven.jpg,128,(unused),51.0218201228724,55.1914214591816,4.10979005699559,tool,0.876023288642273,0,1,1
8,1,animal,0,0,animals,2,gecko.jpg,122,(unused),57.7434803999679,63.4476259930241,5.65087016563194,animal,0.62813348284385,0,2,1
9,1,animal,0,0,animals,2,aardvark.jpg,175,(unused),65.9995646582736,71.920514443718,5.85772141369168,animal,0.610503975758775,0,2,1
10,1,animal,0,0,animals,2,elephantafrican.jpg,153,(unused),74.4725499708666,79.7764031821112,5.24593082627684,animal,0.538906033464627,0,2,1
11,1,tool,0,0,animals,2,ladder.jpg,158,(unused),82.3283941271272,89.5335299887699,7.1453591076595,tool,0.59720246359052,0,1,1
12,1,animal,0,0,animals,2,mink.jpg,134,(unused),92.0856165127459,98.5736401162587,6.42191301357106,animal,0.621398694251411,0,2,1
13,1,animal,0,0,animals,2,highlandcow.jpg,178,(unused),101.125667945773,106.679719611653,5.49520914534672,animal,0.626655857782225,0,2,1
14,1,animal,0,0,animals,2,earthworm.jpg,137,(unused),109.248362143456,116.920642737624,7.61309202490059,animal,0.53307154735694,0,2,1
15,1,tool,0,0,animals,2,binoculars.jpg,144,(unused),119.489283986488,124.292806680558,4.73502015015307,tool,0.59925484535097,0,1,1
16,1,tool,0,0,animals,2,hairbrush.jpg,131,(unused),126.86144985383,133.065911851732,6.13327502236535,tool,0.76047377858049,0,1,1
17,1,tool,0,0,animals,2,pencil.jpg,161,(unused),135.617934228755,142.256108208763,6.5718505463749,tool,0.634615211706887,0,1,1
18,1,animal,0,0,animals,2,prairiedog.jpg,152,(unused),144.824796284903,149.945173815379,5.06181062862357,animal,0.577849648613665,0,2,1
19,1,tool,0,0,animals,2,lantern.jpg,140,(unused),152.49710382079,158.81838864577,6.24645531921017,tool,0.546855765346436,0,1,1
20,1,tool,0,0,animals,2,jumpercables.jpg,167,(unused),161.370377345643,167.291327451822,5.85028118662918,tool,0.550345680322835,0,1,1
21,1,tool,0,0,animals,2,ruler.jpg,166,(unused),169.843367789992,174.796824685325,4.89712696817237,tool,0.551127631679492,0,1,1
22,1,animal,0,0,animals,2,brown_bear.jpg,129,(unused),177.365636885818,182.736151289856,5.30591519345617,animal,0.62910691285515,0,2,1
23,1,tool,0,0,animals,2,corkscrew.jpg,151,(unused),185.288168535123,189.674593307906,4.32819812513664,tool,0.589922105162941,0,1,1
24,1,tool,0,0,animals,2,measuringdevice.jpg,145,(unused),192.226604459213,198.981486763987,6.69998413459903,tool,0.567459445906024,0,1,1
25,1,animal,0,0,animals,2,fly.jpg,147,(unused),201.533575533107,208.138367759522,6.55663378567213,animal,0.646784530155173,0,2,1
26,1,tool,0,0,animals,2,wheeldolly.jpg,148,(unused),210.690316367549,215.910829536758,5.15220193551762,tool,0.676685670078541,0,1,1
27,1,animal,0,0,animals,2,beetle.jpg,125,(unused),218.462757297026,224.216854763831,5.70241926661674,animal,0.552963838208143,0,2,1
28,1,animal,0,0,animals,2,palmcockatoo.jpg,160,(unused),226.768911780208,231.03869590326,4.20386724021849,animal,0.699391446287109,0,2,1
29,1,tool,0,0,animals,2,glove.jpg,150,(unused),233.590702243545,237.943681757253,4.29027585609623,tool,0.724668232370732,0,1,1
30,1,animal,0,0,animals,2,bluejay.jpg,139,(unused),240.495818636588,245.716240717123,5.14751887243992,animal,0.7714012120191,0,2,1
31,1,tool,0,0,animals,2,telephone.jpg,138,(unused),248.268239680508,255.840425689994,7.50082280880532,tool,0.560587382834228,0,1,1
32,1,tool,0,0,animals,2,carpetblower.jpg,168,(unused),258.392410220315,265.414258031027,6.95797855223584,tool,0.601129860786159,0,1,1
33,1,animal,0,0,animals,2,waterbuffalo.jpg,173,(unused),267.98287426258,273.98725902755,5.93662789723411,animal,0.460436990302924,0,2,1
34,1,animal,0,0,animals,2,moth.jpg,159,(unused),276.539130017764,281.64291561812,5.03668158180463,animal,0.588996143896793,0,2,1
35,1,animal,0,0,animals,2,dog.jpg,130,(unused),284.19493639147,289.64874016145,5.40229389112447,animal,0.574581361359606,0,2,1
36,1,tool,0,0,animals,2,saw.jpg,163,(unused),292.200846891717,296.37054541066,4.10507645749355,tool,0.77401263447473,0,1,1
37,1,animal,0,0,animals,2,chimp.jpg,141,(unused),298.922543411841,303.058854724701,4.06842911586104,animal,0.706943787795353,0,2,1
38,1,tool,0,0,animals,2,electricdrill.jpg,157,(unused),305.610848235595,311.365011132292,5.69762395717315,tool,0.741105247600217,0,1,1
39,1,tool,0,0,animals,2,caulkinggun.jpg,156,(unused),313.917004963921,320.988675713007,7.02198654013355,tool,0.658801178855356,0,1,1
40,1,tool,0,0,animals,2,pruner.jpg,135,(unused),323.540804894707,328.527755480063,4.92757029157626,tool,0.594006983128111,0,1,1
41,1,animal,0,0,animals,2,otter.jpg,146,(unused),331.079725898055,335.999934465458,4.84907478040385,animal,0.682116351117202,0,2,1
42,1,tool,0,0,animals,2,tape.jpg,126,(unused),338.568621579393,343.905794321685,5.26340961024501,tool,0.685540194732084,0,1,1
43,1,animal,0,0,animals,2,angelfish.jpg,132,(unused),346.474447437736,350.877652091212,4.33032787644594,animal,0.530947000274637,0,2,1
44,1,tool,0,0,animals,2,crutches.jpg,121,(unused),353.429658431497,360.234666768997,6.73651977343818,tool,0.875176228128339,0,1,1
45,1,animal,0,0,animals,2,sparrow.jpg,172,(unused),362.786604472042,368.840989541711,5.99614947075075,animal,0.413288659134196,0,2,1
46,1,tool,0,0,animals,2,drill.jpg,124,(unused),371.392994599056,375.762770030196,4.31081368501022,tool,0.61176189750654,0,1,1
47,1,tool,0,0,animals,2,smartphone.jpg,176,(unused),378.331477671157,382.884730707473,4.49840736040749,tool,0.601077901754024,0,1,1
48,1,tool,0,0,animals,2,chainsaw.jpg,179,(unused),385.453449253415,390.990797373476,5.46842246866696,tool,0.597236140740733,0,1,1
49,1,animal,0,0,animals,2,lobsterspiny.jpg,155,(unused),393.542792808779,401.064964721972,7.4600256123321,animal,0.660508770743263,0,2,1
50,1,tool,0,0,animals,2,faxmachine.jpg,174,(unused),403.616923272776,408.470429914071,4.78887238950175,tool,0.485349100959183,0,1,1
51,1,animal,0,0,animals,2,octopus.jpg,170,(unused),411.039103236412,417.660608951424,6.56513504094375,animal,0.584476670325103,0,2,1
52,1,animal,0,0,animals,2,stickinsect.jpg,162,(unused),420.229235125754,424.315519192196,4.03442361737355,animal,0.713863319612301,0,2,1
53,1,animal,0,0,animals,2,deer.jpg,142,(unused),426.867500515169,432.254737067643,5.33139339872283,animal,0.566940817791419,0,2,1
54,1,tool,0,0,animals,2,beadingtool.jpg,154,(unused),434.806778047282,439.676951670632,4.80770304179244,tool,0.538000278488653,0,1,1
55,1,animal,0,0,animals,2,crab.jpg,143,(unused),442.228924654502,446.71540584453,4.42919688794424,animal,0.655745218015682,0,2,1
56,1,tool,0,0,animals,2,dremel.jpg,165,(unused),449.250807104569,453.620620382411,4.30515056425908,tool,0.703870828013123,0,1,1
57,1,tool,0,0,animals,2,magnet.jpg,180,(unused),456.172548784148,461.860034130578,5.61998312401582,tool,0.752769088059267,0,1,1
58,1,animal,0,0,animals,2,lemur.jpg,127,(unused),464.412014812082,471.934196988787,7.45750010435414,animal,0.523980961916777,0,2,1
59,1,tool,0,0,animals,2,wateringcan.jpg,123,(unused),474.486193065559,480.17355589131,5.63682310423874,tool,0.582935219045112,0,1,1
60,1,animal,0,0,animals,2,shrimp.jpg,177,(unused),482.725654923941,488.129609776033,5.34618510689637,animal,0.605179778661977,0,2,1
