trial,phase,object,toShock,seenBefore,shockedCategory,responseSide,filename,num,name,onsetFixationCross,onsetStimulus,interTrialTime,response,reactionTime,wasShocked,buttonPressed,isResponseCorrect
1,2,animal,1,0,animals,2,catfish.jpg,87,(unused),0.0318115422451228,9.22228023366097,9.0772242552177,,4.30198022650802,1,,0
2,2,tool,0,0,animals,2,clippers.jpg,61,(unused),13.7761248529196,20.5649617793797,6.73613413350503,,4.30424075788051,0,,0
3,2,tool,0,0,animals,2,tubeflaring.jpg,109,(unused),24.8852615627875,34.9265092041924,9.99965728435887,,4.30317752554492,0,,0
4,2,tool,0,0,animals,2,avocadoslicer.jpg,76,(unused),39.2469189992726,48.0371953787399,8.74923000683741,,4.30393990963603,0,,0
5,2,animal,1,0,animals,2,seaslug.jpg,119,(unused),52.3575188964451,60.7808755610195,8.37368914222187,,4.30270508475223,1,,0
6,2,animal,1,0,animals,2,baboon.jpg,113,(unused),65.3013157616579,74.6754654564311,9.32790633249378,,4.30359319646777,1,,0
7,2,animal,1,0,animals,2,crow.jpg,75,(unused),79.1959277876977,88.6034222446169,9.36745758439169,,4.30111937715992,1,,0
8,2,tool,0,0,animals,2,stopwatch.jpg,111,(unused),93.1238890661552,101.88083126769,8.70983777284044,,4.30116395915047,0,,0
9,2,animal,1,0,animals,2,turtle.jpg,78,(unused),106.201142597513,114.79130678432,8.55379527459302,,4.3006023543785,1,,0
10,2,animal,0,0,animals,2,pelican.jpg,92,(unused),119.311752437432,128.41905198446,9.06173405787483,,4.30186412089643,0,,0
11,2,animal,0,0,animals,2,malaysianjunglenymph.jpg,85,(unused),132.739284734517,141.629671414317,8.84145483843231,,4.30370160447001,0,,0
12,2,tool,0,0,animals,2,eraser.jpg,117,(unused),145.949983706341,155.857865128513,9.86463296468061,,4.30499961390069,0,,0
13,2,animal,0,0,animals,2,rooster.jpg,106,(unused),160.178173571732,167.700794761777,7.47739162544643,,4.30347997745866,0,,0
14,2,tool,0,0,animals,2,padlock.jpg,84,(unused),172.02109582812,181.128338605276,9.05959640543013,,4.30140033991393,0,,0
15,2,tool,0,0,animals,2,hammer.jpg,63,(unused),185.448636464283,194.505828421178,9.00352964891911,,4.3003762370945,0,,0
16,2,animal,1,0,animals,2,ram.jpg,97,(unused),198.826118903308,206.198636063365,7.32341142555568,,4.30297193522074,1,,0
17,2,tool,0,0,animals,2,curlingiron.jpg,99,(unused),210.719065359057,216.790546966099,6.0151024058023,,4.30542683123713,0,,0
18,2,tool,0,0,animals,2,airhorn.jpg,89,(unused),221.110849636111,228.90035946195,7.74015439883115,,4.30049266344031,0,,0
19,2,tool,0,0,animals,2,stove.jpg,101,(unused),233.220647057477,241.110243128616,7.84098773256088,,4.30256813144661,0,,0
20,2,animal,1,0,animals,2,macaw.jpg,81,(unused),245.430528158273,253.870577410145,8.40004413656785,,4.30467952163235,1,,0
21,2,tool,0,0,animals,2,generator.jpg,66,(unused),258.391037496275,265.963707261444,7.51634287077725,,4.30096702863557,0,,0
22,2,animal,1,0,animals,2,orangutan.jpg,73,(unused),270.284011535125,276.538836412901,6.207133071746,,4.30419906249517,1,,0
23,2,animal,0,0,animals,2,starfish.jpg,105,(unused),281.059410680241,288.498596196162,7.39278082507009,,4.30185257448102,0,,0
24,2,tool,0,0,animals,2,fishingpole.jpg,120,(unused),292.818896941772,300.458312359635,7.6065577583531,,4.30554871005643,0,,0
25,2,tool,0,0,animals,2,carjack.jpg,88,(unused),304.778605728368,312.468096342256,7.64743432061376,,4.30219223150834,0,,0
26,2,tool,0,0,animals,2,mallet.jpg,82,(unused),316.788315621497,324.077472159125,7.2430634159291,,4.30220121205275,0,,0
27,2,animal,0,0,animals,2,manatee.jpg,65,(unused),328.39775879245,337.121306518111,8.67295840766066,,4.30281509642373,0,,0
28,2,tool,0,0,animals,2,reflexhammer.jpg,93,(unused),341.441612395461,349.331232521631,7.84686152339996,,4.30432639378796,0,,0
29,2,tool,0,0,animals,2,keys.jpg,72,(unused),353.651496703595,362.8088339208,9.10872888900482,,4.30318650609024,0,,0
30,2,animal,1,0,animals,2,goldfish.jpg,98,(unused),367.129080462409,374.951970331103,7.77867308797416,,4.3004782304215,1,,0
31,2,animal,0,0,animals,2,kangaroo.jpg,115,(unused),379.472475319956,386.144357330995,6.61717733925873,,4.30147122206927,0,,0
32,2,tool,0,0,animals,2,pliers2.jpg,70,(unused),390.464627927633,397.453512900007,6.93807741835482,,4.30170631989768,0,,0
33,2,animal,1,0,animals,2,caiman.jpg,64,(unused),401.77380883461,410.680883290703,8.85493567793858,,4.30479081623798,1,,0
34,2,tool,0,0,animals,2,paintgun.jpg,94,(unused),415.201351395176,425.226026724433,9.98608681037675,,4.3021678557443,0,,0
35,2,animal,1,0,animals,2,shark.jpg,110,(unused),429.54634446893,439.387478634739,9.78229548642159,,4.30118256170681,1,,0
36,2,tool,0,0,animals,2,mixer.jpg,116,(unused),443.907942890408,450.12950126507,6.16181284749185,,4.30452653163957,0,,0
37,2,animal,1,0,animals,2,dolphin.jpg,86,(unused),454.449800407011,463.323571796343,8.83725756495803,,4.30037912369698,1,,0
38,2,tool,0,0,animals,2,wrench.jpg,118,(unused),467.843946246565,474.71606617789,6.83521694445811,,4.30281766229382,0,,0
39,2,animal,0,0,animals,2,stinkbug.jpg,62,(unused),479.036373658908,488.54394249398,9.45952122018663,,4.30342513198957,0,,0
40,2,animal,1,0,animals,2,dragonfly.jpg,68,(unused),492.864249012798,502.488549853344,9.582114899698,,4.30328882015237,1,,0
41,2,animal,1,0,animals,2,prayingmantis.jpg,96,(unused),507.009033032304,513.664318355432,6.60604518356197,,4.30092821985363,1,,0
42,2,tool,0,0,animals,2,electricsander.jpg,103,(unused),518.184747651122,526.057652097165,7.81944894267962,,4.30100166787997,0,,0
43,2,tool,0,0,animals,2,level.jpg,100,(unused),530.377957974515,537.900569221813,7.46427806712357,,4.30551407081293,0,,0
44,2,animal,1,0,animals,2,wasp.jpg,104,(unused),542.220887607778,549.910364109382,7.6446903238199,,4.30111905642661,1,,0
45,2,animal,0,0,animals,2,flea.jpg,77,(unused),554.430788273333,562.020098025467,7.54842867357589,,4.30580176897456,0,,0
46,2,animal,1,0,animals,2,ant.jpg,112,(unused),566.340403261349,575.481042118048,9.09382034614008,,4.30332827040183,1,,0
47,2,tool,0,0,animals,2,shoehorn.jpg,102,(unused),580.001493544368,587.624314198722,7.57824645843128,,4.30247062839044,0,,0
48,2,animal,1,0,animals,2,seal.jpg,107,(unused),591.944478953228,599.066797498918,7.08613559501496,,4.30338375733754,1,,0
49,2,animal,1,0,animals,2,cheetah.jpg,67,(unused),603.587263999723,613.528452337459,9.88561303010265,,4.30423338100445,1,,0
50,2,tool,0,0,animals,2,hoe.jpg,91,(unused),618.048953477507,627.573199504659,9.4717753499409,,4.30497299299986,0,,0
51,2,tool,0,0,animals,2,lighterbic.jpg,69,(unused),631.893484534316,640.650471638574,8.71895555039831,,4.30415319757049,0,,0
52,2,animal,1,0,animals,2,gerbil.jpg,90,(unused),644.970767252444,652.643497604216,7.62056055924021,,4.30352904972005,1,,0
53,2,tool,0,0,animals,2,ducttape.jpg,83,(unused),657.163981424642,665.453870197389,8.25397876419245,,4.3046054321394,0,,0
54,2,animal,0,0,animals,2,cow.jpg,80,(unused),669.774176395473,678.898080969489,9.0813657326296,,4.30488190461892,0,,0
55,2,tool,0,0,animals,2,thermometer.jpg,79,(unused),683.218336491641,691.891943408713,8.62737677865647,,4.30047277794893,0,,0
56,2,tool,0,0,animals,2,magnifyingglass.jpg,74,(unused),696.212247682394,703.951707329439,7.69022165276628,,4.30110462340872,0,,0
57,2,tool,0,0,animals,2,burnisher.jpg,95,(unused),708.272015131191,715.644512405756,7.32863850859983,,4.3047042181297,0,,0
58,2,animal,1,0,animals,2,hedgehog.jpg,108,(unused),719.964769210844,727.587420197053,7.57806474354593,,4.30422536266087,1,,0
59,2,animal,0,0,animals,2,baldeagle.jpg,71,(unused),732.107997030263,740.047657071746,7.89405712808993,,4.30239461449582,0,,0
60,2,tool,0,0,animals,2,gardenhose.jpg,114,(unused),744.367886614466,753.491825827726,9.07644679627913,,4.30169477348318,0,,0
