trial,phase,object,toShock,seenBefore,shockedCategory,responseSide,filename,num,name,onsetFixationCross,onsetStimulus,interTrialTime,response,reactionTime,wasShocked,buttonPressed,isResponseCorrect
1,3,tool,0,0,animals,2,burnisher.jpg,95,(unused),0.0183151256214842,7.39011182724926,7.3068623783574,tool,0.866933352412161,0,1,1
2,3,tool,0,0,animals,2,magnifyingglass.jpg,74,(unused),9.95898657102271,17.4644389016576,7.43531934527532,tool,0.682999983134778,0,1,1
3,3,tool,0,0,animals,2,hoe.jpg,91,(unused),20.0331391657187,26.1209338929034,6.0299127350143,tool,0.433723640947846,0,1,1
4,3,animal,0,0,animals,2,flea.jpg,77,(unused),28.6728578043535,32.8758912496128,4.1386319083922,animal,0.688104797652159,0,2,1
5,3,tool,0,0,animals,2,generator.jpg,66,(unused),35.4278937410804,43.0835808014531,7.57993917154473,tool,0.541809973766249,0,1,1
6,3,animal,0,0,animals,2,malaysianjunglenymph.jpg,85,(unused),45.6354819407352,51.2228515339889,5.53662810377172,tool,0.528885645681385,0,1,0
7,3,tool,0,0,animals,2,airhorn.jpg,89,(unused),53.774823234919,61.1635829567908,7.33392688369742,tool,0.525480083947969,0,1,1
8,3,tool,0,0,animals,2,mallet.jpg,82,(unused),63.7155851275238,70.4704308685346,6.69407812841418,tool,0.564990437426786,0,1,1
9,3,animal,0,0,animals,2,dolphin.jpg,86,(unused),73.022507449733,77.675837430319,4.60504503529345,animal,0.501843214717155,0,2,1
10,3,tool,0,0,animals,2,gardenhose.jpg,114,(unused),80.2444950366562,87.4998063241787,7.20474414055934,tool,0.491384054034825,0,1,1
11,3,tool,0,0,animals,2,reflexhammer.jpg,93,(unused),90.0517879678864,97.3738448014456,7.25508559440623,tool,0.769594841563958,0,1,1
12,3,tool,0,0,animals,2,electricsander.jpg,103,(unused),99.925769354365,105.880096403115,5.8782983921584,tool,0.470790316252987,0,1,1
13,3,animal,0,0,animals,2,stinkbug.jpg,62,(unused),108.432092159152,113.78597293755,5.2999339827314,animal,0.623079031424822,0,2,1
14,3,animal,0,0,animals,2,macaw.jpg,81,(unused),116.33798569253,122.142201173691,5.72688109220408,animal,0.555170180396544,0,2,1
15,3,animal,0,0,animals,2,ant.jpg,112,(unused),124.694166780661,131.916075146097,7.16533419306692,animal,0.482656861083342,0,2,1
16,3,tool,0,0,animals,2,paintgun.jpg,94,(unused),134.468087259608,138.554370363846,4.02036473061498,tool,0.669625984909544,0,1,1
17,3,animal,0,0,animals,2,baldeagle.jpg,71,(unused),141.106342064776,148.161535706787,6.99873739014032,animal,0.614815620942863,0,2,1
18,3,animal,0,0,animals,2,turtle.jpg,78,(unused),150.713472447627,156.868011437909,6.08668762652804,animal,0.627670028849025,0,2,1
19,3,animal,0,0,animals,2,dragonfly.jpg,68,(unused),159.419950103159,166.642000554096,7.15686658599757,animal,0.547997909584865,0,2,1
20,3,tool,0,0,animals,2,mixer.jpg,116,(unused),169.19393280465,176.148980544416,6.90471143204987,tool,0.451427879233506,0,1,1
21,3,tool,0,0,animals,2,carjack.jpg,88,(unused),178.717606077277,183.254279371393,4.47674981195044,tool,0.671378479665236,0,1,1
22,3,animal,0,0,animals,2,goldfish.jpg,98,(unused),185.806211301212,192.160826562222,6.27644627017027,animal,0.620183758702296,0,2,1
23,3,tool,0,0,animals,2,padlock.jpg,84,(unused),194.71282712928,199.382870277729,4.61035444260234,animal,0.682432603335656,0,2,0
24,3,animal,0,0,animals,2,cheetah.jpg,67,(unused),201.934857053193,207.205337170684,5.20447212747793,animal,0.723251875389451,0,2,1
25,3,tool,0,0,animals,2,lighterbic.jpg,69,(unused),209.757336775539,217.579766783997,7.75552036068863,tool,0.541119431817151,0,1,1
26,3,animal,0,0,animals,2,gerbil.jpg,90,(unused),220.131698072347,224.334839605222,4.13165569332298,animal,0.753394207856218,0,2,1
27,3,animal,0,0,animals,2,hedgehog.jpg,108,(unused),226.886720217478,233.975205165877,7.01228438013578,animal,0.529385671179625,0,2,1
28,3,animal,0,0,animals,2,crow.jpg,75,(unused),236.527230750248,244.482976088128,7.90614037461123,animal,0.51501162195791,0,2,1
29,3,tool,0,0,animals,2,wrench.jpg,118,(unused),247.051696558478,251.85512720167,4.73710318293664,tool,0.689140129473344,0,1,1
30,3,tool,0,0,animals,2,shoehorn.jpg,102,(unused),254.407191594948,262.429762021085,7.95579719621219,tool,0.592899172990656,0,1,1
31,3,tool,0,0,animals,2,tubeflaring.jpg,109,(unused),264.981682083719,271.619872421199,6.57868842540538,tool,0.570139192606803,0,1,1
32,3,animal,0,0,animals,2,shark.jpg,110,(unused),274.171823915839,280.326315437376,6.09744149037062,animal,0.588035230281548,0,2,1
33,3,animal,0,0,animals,2,ram.jpg,97,(unused),282.878310551944,288.649142996574,5.69456277360042,animal,0.622544045837458,0,2,1
34,3,tool,0,0,animals,2,level.jpg,100,(unused),291.201132017182,297.105409688815,5.85210230351479,tool,0.697569039093651,0,1,1
35,3,tool,0,0,animals,2,pliers2.jpg,70,(unused),299.657439122002,306.012082607671,6.2922453091135,tool,0.545231251502628,0,1,1
36,3,animal,0,0,animals,2,wasp.jpg,104,(unused),308.564047573171,313.334186909975,4.71289827608877,animal,0.572396203147491,0,2,1
37,3,animal,0,0,animals,2,caiman.jpg,64,(unused),315.886124933755,322.207364214398,6.2565649950962,animal,0.654563638882337,0,2,1
38,3,animal,0,0,animals,2,rooster.jpg,106,(unused),324.759394289056,330.430105207284,5.61407079624449,animal,0.821158728240789,0,2,1
39,3,tool,0,0,animals,2,ducttape.jpg,83,(unused),332.982180184808,340.837779620444,7.80272249278911,tool,0.460848180011908,0,1,1
40,3,tool,0,0,animals,2,thermometer.jpg,79,(unused),343.389873842054,351.278947082158,7.82103240062735,tool,0.646077638473798,0,1,1
41,3,animal,0,0,animals,2,pelican.jpg,92,(unused),353.831000570453,359.08479221666,5.20099715424144,animal,0.70952923847517,0,2,1
42,3,animal,0,0,animals,2,orangutan.jpg,73,(unused),361.636770973755,365.939834536009,4.2330870283799,animal,0.542750688831347,0,2,1
43,3,tool,0,0,animals,2,eraser.jpg,117,(unused),368.491848253193,374.713042342308,6.15597762405829,tool,0.680894680138408,0,1,1
44,3,tool,0,0,animals,2,keys.jpg,72,(unused),377.281738436817,382.285293781685,4.94288006526871,tool,0.605900156684584,0,1,1
45,3,tool,0,0,animals,2,clippers.jpg,61,(unused),384.8372994805,391.792421309997,6.89887262103644,tool,0.569192062846469,0,1,1
46,3,animal,0,0,animals,2,catfish.jpg,87,(unused),394.344313468706,401.215902494574,6.8156032230544,animal,0.659017041092284,0,2,1
47,3,animal,0,0,animals,2,cow.jpg,80,(unused),403.76799447104,408.438091502929,4.59805701485076,tool,0.599093523504507,0,1,0
48,3,tool,0,0,animals,2,curlingiron.jpg,99,(unused),411.006753278818,416.527406833634,5.46373418783567,tool,0.598142544926304,0,1,1
49,3,tool,0,0,animals,2,fishingpole.jpg,120,(unused),419.07943819123,423.265635627212,4.13615000999946,tool,0.795095821248196,0,1,1
50,3,tool,0,0,animals,2,hammer.jpg,63,(unused),425.817766091851,430.971465719254,5.09340732748337,tool,0.605569799876776,0,1,1
51,3,animal,0,0,animals,2,seal.jpg,107,(unused),433.523469814395,440.36165816332,6.77315814647284,animal,0.64775700570226,0,2,1
52,3,animal,0,0,animals,2,baboon.jpg,113,(unused),442.930476457774,448.684582584418,5.69142255073884,animal,0.629114618230233,0,2,1
53,3,animal,0,0,animals,2,starfish.jpg,105,(unused),451.236622601853,455.472888979773,4.18574067706714,animal,0.679074510347618,0,2,1
54,3,tool,0,0,animals,2,stopwatch.jpg,111,(unused),458.025030028659,465.01346176716,6.9248924613541,tool,0.550850524583439,0,1,1
55,3,tool,0,0,animals,2,stove.jpg,101,(unused),467.56539979094,472.669149469002,5.03189762186489,tool,0.787463937518623,0,1,1
56,3,animal,0,0,animals,2,manatee.jpg,65,(unused),475.221091662334,480.541618911799,5.25477786841738,animal,0.675356873688543,0,2,1
57,3,animal,0,0,animals,2,kangaroo.jpg,115,(unused),483.093622044737,489.414852344806,6.25547958940669,animal,0.585384998919835,0,2,1
58,3,animal,0,0,animals,2,seaslug.jpg,119,(unused),491.983540741681,496.787026871987,4.72942940368215,animal,0.599543514379548,0,2,1
59,3,tool,0,0,animals,2,avocadoslicer.jpg,76,(unused),499.355661064687,504.492835154064,5.07204931840323,tool,0.916982088059285,0,1,1
60,3,animal,0,0,animals,2,prayingmantis.jpg,96,(unused),507.044751047145,512.398606166762,5.28801307678187,animal,0.578507804091714,0,2,1
