trial,phase,object,toShock,seenBefore,shockedCategory,responseSide,filename,num,name,onsetFixationCross,onsetStimulus,interTrialTime,response,reactionTime,wasShocked,buttonPressed,isResponseCorrect
1,2,tool,0,0,animals,1,thermometer.jpg,79,(unused),0.0315922363824939,9.95608672161688,9.80775417881632,1,1.590091495671,0,1,0
2,2,tool,0,0,animals,1,eraser.jpg,117,(unused),14.3599295447257,23.5841759072391,9.18152308612125,0,1.83057841405935,0,2,1
3,2,animal,1,0,animals,1,prayingmantis.jpg,96,(unused),27.9378559880133,35.7274504215457,7.74279202680617,1,2.02501284436039,1,1,1
4,2,animal,1,0,animals,1,baldeagle.jpg,71,(unused),40.2813417402012,48.4212420933982,8.09482702525676,0,1.45072132197129,1,2,0
5,2,tool,0,0,animals,1,pliers2.jpg,70,(unused),52.9917575702766,62.0324017784587,8.99255559378656,1,1.20426483261326,0,1,0
6,2,animal,0,0,animals,1,shark.jpg,110,(unused),66.3861190648113,73.4752171246055,7.04761830410917,1,1.3450109712503,0,1,0
7,2,tool,0,0,animals,1,shoehorn.jpg,102,(unused),77.845548305575,86.0021619820891,8.10762810437443,0,1.52064343401617,0,2,1
8,2,tool,0,0,animals,1,keys.jpg,72,(unused),90.3558388554866,96.4607095147821,6.05885467230695,1,1.59660535859621,0,1,0
9,2,animal,1,0,animals,1,cheetah.jpg,67,(unused),100.814409481296,107.386216248349,6.52512393424317,0,0.739556569255001,1,2,0
10,2,tool,0,0,animals,1,padlock.jpg,84,(unused),111.940256068583,118.228658640643,6.25177475179384,1,1.32559671535637,0,1,0
11,2,tool,0,0,animals,1,tubeflaring.jpg,109,(unused),122.582346419124,130.989184612061,8.35998043420657,0,1.10566844514688,0,2,1
12,2,animal,0,0,animals,1,dolphin.jpg,86,(unused),135.342515409428,141.39777595753,6.01587725550716,1,1.19355796510536,0,1,0
13,2,tool,0,0,animals,1,hammer.jpg,63,(unused),145.751394135919,152.723690733661,6.91341206613291,0,1.11723905941108,0,2,1
14,2,animal,0,0,animals,1,starfish.jpg,105,(unused),157.093991123807,165.150471758303,8.01827602517698,1,1.00097066349736,0,1,0
15,2,tool,0,0,animals,1,fishingpole.jpg,120,(unused),169.487584130698,177.944404811355,8.41172347065313,0,0.865754685111824,0,2,1
16,2,animal,1,0,animals,1,kangaroo.jpg,115,(unused),182.298120494019,188.786647063293,6.43478578815684,1,1.17992661081007,1,1,1
17,2,animal,0,0,animals,1,rooster.jpg,106,(unused),193.340534212357,203.331952232431,9.94887646347437,1,0.921323782928084,0,1,0
18,2,animal,1,0,animals,1,ram.jpg,97,(unused),207.685626860664,215.058286918422,7.32183666761017,0,1.42953755592134,1,2,0
19,2,tool,0,0,animals,1,mixer.jpg,116,(unused),219.628816828501,228.53600655001,8.86550992068439,0,1.31844362209813,0,2,1
20,2,tool,0,0,animals,1,ducttape.jpg,83,(unused),232.889692083327,239.177986887504,6.24695738660248,0,0.674941704726734,0,2,1
21,2,animal,1,0,animals,1,wasp.jpg,104,(unused),243.531812583215,249.83687619834,6.26337799331228,1,1.36752547821925,1,1,1
22,2,animal,1,0,animals,1,stinkbug.jpg,62,(unused),254.390709463463,261.145982071304,6.69422912524493,0,1.46800427552989,1,2,0
23,2,animal,1,0,animals,1,goldfish.jpg,98,(unused),265.716705706984,271.871646415402,6.10276290710867,0,1.5359166448452,1,2,0
24,2,tool,0,0,animals,1,airhorn.jpg,89,(unused),276.425545111026,282.864005800766,6.38324448318428,0,0.580140286298047,0,2,1
25,2,animal,0,0,animals,1,baboon.jpg,113,(unused),287.217717634578,297.24249911595,9.96896111017379,1,0.94215922778676,0,1,0
26,2,tool,0,0,animals,1,reflexhammer.jpg,93,(unused),301.596206138696,310.086454428201,8.4449348402543,0,1.00987241895928,0,2,1
27,2,animal,1,0,animals,1,manatee.jpg,65,(unused),314.44013835783,320.728513987919,6.24084814539296,0,1.16332843234159,1,2,0
28,2,animal,1,0,animals,1,macaw.jpg,81,(unused),325.282323839187,333.722514267602,8.38648213220187,1,0.755967757613689,1,1,1
29,2,tool,0,0,animals,1,level.jpg,100,(unused),338.276379927238,344.965111640375,6.64339900163284,0,1.012862656984,0,2,1
30,2,animal,1,0,animals,1,gerbil.jpg,90,(unused),349.318786910084,357.558786948572,8.19273262219263,1,1.4968094119522,1,1,1
31,2,animal,0,0,animals,1,seal.jpg,107,(unused),362.112630798041,370.902921232486,8.74287599138917,1,1.50229947998741,0,1,0
32,2,animal,1,0,animals,1,ant.jpg,112,(unused),375.25678220935,384.180655746306,8.87970594700122,0,0.952111399370551,1,2,0
33,2,tool,0,0,animals,1,stopwatch.jpg,111,(unused),388.734530707336,395.239784070913,6.4577442043871,0,0.798481866866496,0,2,1
34,2,animal,1,0,animals,1,orangutan.jpg,73,(unused),399.593419248402,408.500655476886,8.85631214265113,0,1.10925493464492,1,2,0
35,2,animal,1,0,animals,1,caiman.jpg,64,(unused),413.054519532832,421.494695848787,8.39436902098498,0,1.26389414958248,1,2,0
36,2,animal,0,0,animals,1,turtle.jpg,78,(unused),426.065231211407,432.920765477103,6.80264938401607,1,0.820342710303521,0,1,0
37,2,tool,0,0,animals,1,stove.jpg,101,(unused),437.274449085993,445.514454577024,8.18657432382609,0,0.908246021985178,0,2,1
38,2,tool,0,0,animals,1,mallet.jpg,82,(unused),449.884776456598,456.023048424247,6.08883850047548,0,0.741137806351617,0,2,1
39,2,tool,0,0,animals,1,hoe.jpg,91,(unused),460.37677308757,469.167275529666,8.75254906426302,0,0.64753594710055,0,2,1
40,2,animal,1,0,animals,1,seaslug.jpg,119,(unused),473.520899481335,482.628103828487,9.06629310971641,1,1.52038139127581,1,1,1
41,2,animal,1,0,animals,1,pelican.jpg,92,(unused),487.182160968558,496.756498035706,9.53419466664004,1,1.01662491076968,1,1,1
42,2,animal,1,0,animals,1,crow.jpg,75,(unused),501.327154957931,510.901522815904,9.52731834833963,0,1.17627404933228,1,2,0
43,2,tool,0,0,animals,1,paintgun.jpg,94,(unused),515.455393928081,522.210844545374,6.70467896392572,0,0.854401851778675,0,2,1
44,2,tool,0,0,animals,1,lighterbic.jpg,69,(unused),526.564533286068,535.738625566166,9.12732686395929,0,0.6833136014302,0,2,1
45,2,tool,0,0,animals,1,gardenhose.jpg,114,(unused),540.109007744437,547.498290035994,7.34635065056297,0,0.659192198341771,0,2,1
46,2,animal,0,0,animals,1,dragonfly.jpg,68,(unused),551.868647838195,557.956871566887,6.04126793653017,1,1.49718275069245,0,1,0
47,2,tool,0,0,animals,1,burnisher.jpg,95,(unused),562.310588532502,571.868170259688,9.51290110810107,0,0.74447059229351,0,2,1
48,2,tool,0,0,animals,1,wrench.jpg,118,(unused),576.222035085406,583.544446763852,7.28702111500812,0,0.530780350547502,0,2,1
49,2,animal,1,0,animals,1,malaysianjunglenymph.jpg,85,(unused),587.91503442395,594.320136895265,6.36544879606102,1,1.34651651424065,1,1,1
50,2,tool,0,0,animals,1,avocadoslicer.jpg,76,(unused),598.873985876538,606.413399734718,7.4937864040836,0,0.795833214542654,0,2,1
51,2,tool,0,0,animals,1,generator.jpg,66,(unused),610.767079494755,618.523205265006,7.71107098772536,0,0.709686583508301,0,2,1
52,2,tool,0,0,animals,1,carjack.jpg,88,(unused),622.877027432603,631.417287396964,8.48922289003639,0,1.08617272186348,0,2,1
53,2,animal,0,0,animals,1,flea.jpg,77,(unused),635.770997947824,645.478895986576,9.66350385749079,1,1.18223592259528,0,1,0
54,2,tool,0,0,animals,1,magnifyingglass.jpg,74,(unused),649.84920503664,657.205189618137,7.29379864629832,0,1.13349885955176,0,2,1
55,2,animal,1,0,animals,1,hedgehog.jpg,108,(unused),661.575563136488,667.947332184782,6.31270613317466,1,1.15078309606179,1,1,1
56,2,tool,0,0,animals,1,curlingiron.jpg,99,(unused),672.517888716093,679.256694968683,6.70052593474023,0,0.73101275711997,0,2,1
57,2,tool,0,0,animals,1,electricsander.jpg,103,(unused),683.610348748962,690.115579019421,6.45201454094951,0,0.760629039306878,0,2,1
58,2,tool,0,0,animals,1,clippers.jpg,61,(unused),694.469255251342,703.493252849659,8.97243996170876,0,1.41952797227532,0,2,1
59,2,animal,0,0,animals,1,catfish.jpg,87,(unused),707.830247190561,715.036050170344,7.16087707907931,1,1.06327846140084,0,1,0
60,2,animal,1,0,animals,1,cow.jpg,80,(unused),719.389750457596,728.263662354786,8.82834977713446,1,1.05328523538265,1,1,1
