trial,phase,object,toShock,seenBefore,shockedCategory,responseSide,filename,num,name,onsetFixationCross,onsetStimulus,interTrialTime,response,reactionTime,wasShocked,buttonPressed,isResponseCorrect
1,3,animal,0,0,animals,2,rhino.jpg,35,(unused),0.0183357064242955,6.873287480606,6.77973105426128,animal,0.650666664453638,0,2,1
2,3,animal,0,0,animals,2,yak.jpg,53,(unused),9.44200317792411,15.7465731483394,6.23758645300569,animal,0.502752344502824,0,2,1
3,3,tool,0,0,animals,2,italiangardeningtool.jpg,2,(unused),18.298598081049,25.5705851541175,7.2180702483313,tool,0.500141555980917,0,1,1
4,3,animal,0,0,animals,2,heckcattle.jpg,37,(unused),28.1226065587348,35.5280017179352,7.3474063113194,animal,0.679134522888489,0,2,1
5,3,tool,0,0,animals,2,edger.jpg,40,(unused),38.0800173493099,45.3519758769021,7.20682058895103,tool,0.75256631780212,0,1,1
6,3,animal,0,0,animals,2,salamander.jpg,9,(unused),47.8872786129059,54.4587657873267,6.52326735792475,animal,0.534129275652958,0,2,1
7,3,animal,0,0,animals,2,panda.jpg,18,(unused),57.0274869371515,64.5829719664926,7.4883778982051,animal,0.570344183960515,0,2,1
8,3,tool,0,0,animals,2,vegetablepeeler.jpg,3,(unused),67.1349965784661,74.8072454360058,7.61242264536322,tool,0.695487232078904,0,1,1
9,3,animal,0,0,animals,2,seahorse.jpg,42,(unused),77.359289292121,84.2810317080052,6.87648512350482,animal,0.543007560306705,0,2,1
10,3,tool,0,0,animals,2,scale.jpg,43,(unused),86.833050226001,92.3036365180142,5.41124005527145,tool,0.713811503559555,0,1,1
11,3,animal,0,0,animals,2,herculesbeetle.jpg,28,(unused),94.8556335467188,102.127653334828,7.20820449916162,animal,0.58218221756897,0,2,1
12,3,animal,0,0,animals,2,leopard.jpg,50,(unused),104.679648439118,110.483751418368,5.74894068653897,animal,0.693537800550985,0,2,1
13,3,tool,0,0,animals,2,shovel.jpg,52,(unused),113.052534149445,119.290425094179,6.19084432071569,tool,0.613001389352121,0,1,1
14,3,tool,0,0,animals,2,television.jpg,54,(unused),121.842439763346,126.512462715192,4.59861772430526,tool,0.797373414528465,0,1,1
15,3,tool,0,0,animals,2,abacus.jpg,12,(unused),129.06448925158,134.001223815854,4.88963935804517,tool,0.724862131047303,0,1,1
16,3,animal,0,0,animals,2,chinchilla.jpg,19,(unused),136.553400777281,143.074831373927,6.45670143796357,animal,0.59866642839188,0,2,1
17,3,animal,0,0,animals,2,caterpillarpeacockmoth.jpg,1,(unused),145.643532958874,151.797989003972,6.08965410953291,animal,0.703877357011606,0,2,1
18,3,animal,0,0,animals,2,partridge.jpg,33,(unused),154.349958449408,160.888069867854,6.48877186375388,animal,0.599152984435023,0,2,1
19,3,tool,0,0,animals,2,anvil.jpg,6,(unused),163.440115327649,169.794748611289,6.30647410094678,tool,0.702852927215645,0,1,1
20,3,tool,0,0,animals,2,compass.jpg,32,(unused),172.346719339667,180.002346390772,7.59475476945667,tool,0.577665296836585,0,1,1
21,3,tool,0,0,animals,2,electricbreaker.jpg,41,(unused),182.554339570648,187.557962921746,4.94134106808265,tool,0.633356559226741,0,1,1
22,3,animal,0,0,animals,2,phasmagigas.jpg,36,(unused),190.126662582279,197.965715809009,7.77768898122339,animal,0.735017264486032,0,2,1
23,3,tool,0,0,animals,2,pressuregauge.jpg,38,(unused),200.534442090604,208.323452210457,7.7150364006632,tool,0.944717466421025,0,1,1
24,3,animal,0,0,animals,2,racoon.jpg,23,(unused),210.875456936818,216.813107842961,5.86372756586227,animal,0.622400228032348,0,2,1
25,3,tool,0,0,animals,2,bucket.jpg,22,(unused),219.365127323164,224.852486488121,5.42773065677082,tool,0.627342444290207,0,1,1
26,3,animal,0,0,animals,2,cockatiel.jpg,20,(unused),227.42113964198,235.126787669199,7.6366314049485,animal,0.664454450325138,0,2,1
27,3,tool,0,0,animals,2,sawblade.jpg,34,(unused),237.678798168802,242.699129924971,4.95863144758478,tool,0.652421088681876,0,1,1
28,3,tool,0,0,animals,2,spraybottle.jpg,49,(unused),245.250995772778,250.354799313187,5.05397833393565,tool,0.685074547880504,0,1,1
29,3,tool,0,0,animals,2,flashlight.jpg,51,(unused),252.923465296473,259.978610025246,6.98337283223055,tool,0.628652008115751,0,1,1
30,3,animal,0,0,animals,2,emu.jpg,26,(unused),262.530632712806,270.069516462796,7.48800507938524,animal,0.60914839149973,0,2,1
31,3,tool,0,0,animals,2,blender.jpg,24,(unused),272.621495209567,280.410578136421,7.72694799356222,tool,0.627513075678053,0,1,1
32,3,animal,0,0,animals,2,tragopan.jpg,55,(unused),282.962538601257,289.367267271692,6.32623765630601,animal,0.6041433110463,0,2,1
33,3,tool,0,0,animals,2,viceclamp.jpg,4,(unused),291.919218755928,299.658116489994,7.69203112106127,tool,0.634751759481333,0,1,1
34,3,tool,0,0,animals,2,blower.jpg,27,(unused),302.210193061151,306.830222299416,4.5597161993179,tool,0.764910151594449,0,1,1
35,3,tool,0,0,animals,2,plunger.jpg,30,(unused),309.398900791394,315.686832277118,6.24557171442048,tool,0.572648349163046,0,1,1
36,3,animal,0,0,animals,2,flounder.jpg,29,(unused),318.238819042281,326.04457958358,7.7543979729325,animal,0.481357349519385,0,2,1
37,3,animal,0,0,animals,2,hippo.jpg,45,(unused),328.613225360517,336.302134512775,7.64453485382459,animal,0.65318443962542,0,2,1
38,3,animal,0,0,animals,2,firebug.jpg,15,(unused),338.854182538454,343.307399389138,4.40382268296885,animal,0.747247878578946,0,2,1
39,3,tool,0,0,animals,2,monkeywrench.jpg,16,(unused),345.859426246261,352.230841383446,6.31157255460614,tool,0.582165539312882,0,1,1
40,3,animal,0,0,animals,2,squirel.jpg,46,(unused),354.782737701144,361.320884400517,6.47915149298495,animal,0.569502894244124,0,2,1
41,3,tool,0,0,animals,2,kettle.jpg,58,(unused),363.872843903146,369.827029054879,5.90223146082646,tool,0.624701827348872,0,1,1
42,3,tool,0,0,animals,2,loom.jpg,14,(unused),372.379186772165,378.533659816254,6.09247976031157,tool,0.716421009139594,0,1,1
43,3,tool,0,0,animals,2,nailgun.jpg,25,(unused),381.102313290848,388.724582226442,7.56033974103711,tool,0.600907729399296,0,1,1
44,3,animal,0,0,animals,2,mountainsheep.jpg,7,(unused),391.293278358883,398.198370422856,6.85763298010118,animal,0.613501095558604,0,2,1
45,3,animal,0,0,animals,2,armadillo.jpg,57,(unused),400.750283098073,405.503772060917,4.69587427442567,animal,0.540419544018732,0,2,1
46,3,tool,0,0,animals,2,clamp.jpg,31,(unused),408.055767485942,414.910751333694,6.79494486888237,tool,0.652818800938803,0,1,1
47,3,animal,0,0,animals,2,cat.jpg,8,(unused),417.462765040654,423.417138464238,5.89097308112254,animal,0.631762823579265,0,2,1
48,3,animal,0,0,animals,2,ferret.jpg,21,(unused),425.985814711066,431.656432627618,5.62028031690041,animal,0.586803056665303,0,2,1
49,3,animal,0,0,animals,2,mahimahi.jpg,39,(unused),434.208595155939,441.013526916213,6.74354642767872,animal,0.598087179735558,0,2,1
50,3,tool,0,0,animals,2,workbench.jpg,11,(unused),443.565577187043,450.720822883411,7.10079392202961,tool,0.627181434973863,0,1,1
51,3,tool,0,0,animals,2,washboard.jpg,59,(unused),453.272801950917,458.042919455645,4.70089342432398,tool,0.641385535772315,0,1,1
52,3,tool,0,0,animals,2,spoon.jpg,44,(unused),460.594934445548,467.066335406216,6.41448191096131,tool,0.618340034923676,0,1,1
53,3,animal,0,0,animals,2,porcupine.jpg,60,(unused),469.618334038598,475.739460834398,6.07398467076778,animal,0.670601349837852,0,2,1
54,3,animal,0,0,animals,2,beta.jpg,17,(unused),478.291454335009,485.89700909229,7.53926912146295,animal,0.586429078849505,0,2,1
55,3,animal,0,0,animals,2,quail.jpg,47,(unused),488.4490160638,494.853771996769,6.34083336557734,animal,0.534019263311166,0,2,1
56,3,tool,0,0,animals,2,floorbuffer.jpg,56,(unused),497.42237062556,504.961268808657,7.48919911306659,tool,0.594865389722145,0,1,1
57,3,animal,0,0,animals,2,rat.jpg,48,(unused),507.513252045727,513.467542398767,5.89535606692526,animal,0.598022711860722,0,2,1
58,3,animal,0,0,animals,2,frog.jpg,5,(unused),516.036267718155,523.491743189572,7.39397163283817,animal,0.565115871467242,0,2,1
59,3,tool,0,0,animals,2,woodchipper.jpg,13,(unused),526.043734124299,531.330817264122,5.23056746354092,tool,0.672544366651891,0,1,1
60,3,tool,0,0,animals,2,hourglass.jpg,10,(unused),533.882867214216,538.76976201804,4.831137664741,tool,0.621824507468773,0,1,1
