trial,phase,object,toShock,seenBefore,shockedCategory,responseSide,filename,num,name,onsetFixationCross,onsetStimulus,interTrialTime,response,reactionTime,wasShocked,buttonPressed,isResponseCorrect
1,1,tool,0,0,animals,1,stove.jpg,101,(unused),0.028063711494724,4.23087580275569,4.0335177855156,animal,1.10567933092352,0,1,0
2,1,tool,0,0,animals,1,shoehorn.jpg,102,(unused),6.83303076862649,11.4031168736055,4.52881684300012,,2.504355393894,0,,0
3,1,tool,0,0,animals,1,hammer.jpg,63,(unused),13.9217616198421,21.4272449347973,7.46013936535575,tool,0.881975091233471,0,2,1
4,1,animal,0,0,animals,1,caiman.jpg,64,(unused),23.9792549597441,30.300570608938,6.27595206416829,animal,2.27305771237025,0,1,1
5,1,tool,0,0,animals,1,clippers.jpg,61,(unused),32.8526107831367,37.589390496667,4.68932103297094,tool,0.783541633518325,0,2,1
6,1,animal,0,0,animals,1,gerbil.jpg,90,(unused),40.1413857677253,45.0115932394792,4.81271053185254,animal,0.913660671743855,0,1,1
7,1,animal,0,0,animals,1,dragonfly.jpg,68,(unused),47.5636151316849,53.8349231152706,6.22507236644834,animal,0.897721981209543,0,1,1
8,1,animal,0,0,animals,1,cow.jpg,80,(unused),56.3868779735021,62.3744984983423,5.94748369426921,animal,0.654560569172645,0,1,1
9,1,tool,0,0,animals,1,keys.jpg,72,(unused),64.9266233470353,69.0796144414589,4.09691400833079,tool,0.968705507531013,0,2,1
10,1,tool,0,0,animals,1,mallet.jpg,82,(unused),71.6316228627229,78.0696709616841,6.39361094181981,tool,0.847053918696474,0,2,1
11,1,tool,0,0,animals,1,carjack.jpg,88,(unused),80.6217044004115,88.1105065193269,7.43400778671722,tool,0.662604325358188,0,2,1
12,1,animal,0,0,animals,1,baboon.jpg,113,(unused),90.6625354677399,98.5850044220288,7.87654908619345,animal,0.652582585824348,0,1,1
13,1,tool,0,0,animals,1,curlingiron.jpg,99,(unused),101.120369173448,108.042107810227,6.87173345931758,tool,0.713904239209114,0,2,1
14,1,animal,0,0,animals,1,malaysianjunglenymph.jpg,85,(unused),110.594109816757,118.533305832437,7.8974851309624,animal,0.971187368265419,0,1,1
15,1,animal,0,0,animals,1,stinkbug.jpg,62,(unused),121.085330932009,126.656026757492,5.51668444682484,animal,0.715810698269706,0,1,1
16,1,tool,0,0,animals,1,level.jpg,100,(unused),129.20803774465,135.812920897056,6.55689690745014,tool,0.762319767741246,0,2,1
17,1,animal,0,0,animals,1,goldfish.jpg,98,(unused),138.36491841327,143.018314277435,4.60856658647066,animal,0.676231466356512,0,1,1
18,1,tool,0,0,animals,1,burnisher.jpg,95,(unused),145.570311152176,152.07499487049,6.46390342635297,tool,0.616974395234138,0,2,1
19,1,animal,0,0,animals,1,ant.jpg,112,(unused),154.627059099942,160.364607619389,5.68380852324627,animal,0.623621663744416,0,1,1
20,1,tool,0,0,animals,1,paintgun.jpg,94,(unused),162.916653246112,168.437364499032,5.4639778715998,tool,0.711301460730283,0,2,1
21,1,animal,0,0,animals,1,pelican.jpg,92,(unused),171.006011779088,175.259109293956,4.20724600521661,animal,0.95785915389024,0,1,1
22,1,animal,0,0,animals,1,ram.jpg,97,(unused),177.811086603757,182.881443731265,5.02451079954084,animal,0.692845307685275,0,1,1
23,1,animal,0,0,animals,1,turtle.jpg,78,(unused),185.450176648025,191.921533896772,6.42285174637865,animal,0.836258241457472,0,1,1
24,1,tool,0,0,animals,1,airhorn.jpg,89,(unused),194.473608710536,198.99351683871,4.47329659017743,tool,1.10550677456831,0,2,1
25,1,tool,0,0,animals,1,generator.jpg,66,(unused),201.528875816868,209.201092832464,7.61112638905425,tool,0.970454164124021,0,2,1
26,1,tool,0,0,animals,1,reflexhammer.jpg,93,(unused),211.753097404887,219.091943560954,7.29827509351722,tool,0.734950982736336,0,2,1
27,1,animal,0,0,animals,1,manatee.jpg,65,(unused),221.643923436649,228.515642540562,6.82919954722592,animal,1.44968389564838,0,1,1
28,1,tool,0,0,animals,1,mixer.jpg,116,(unused),231.06763684941,238.556432232854,7.43051032416451,tool,0.887317923505179,0,2,1
29,1,tool,0,0,animals,1,fishingpole.jpg,120,(unused),241.108499669673,245.194775922775,4.03511017592789,tool,1.12826913880872,0,2,1
30,1,tool,0,0,animals,1,padlock.jpg,84,(unused),247.746799418665,252.416853385825,4.62173984986736,tool,0.676483244681549,0,2,1
31,1,animal,0,0,animals,1,shark.jpg,110,(unused),254.968865655929,260.406085933418,5.39847027505188,animal,1.3816463360954,0,1,1
32,1,animal,0,0,animals,1,macaw.jpg,81,(unused),262.974842584696,269.512801775438,6.49075758761817,animal,0.645292881665227,0,1,1
33,1,tool,0,0,animals,1,avocadoslicer.jpg,76,(unused),272.06500873273,276.501539747009,4.39362879277596,tool,1.302884302856,0,2,1
34,1,tool,0,0,animals,1,stopwatch.jpg,111,(unused),279.070241231571,286.208789230784,7.08665928631893,tool,1.10005649549566,0,2,1
35,1,animal,0,0,animals,1,orangutan.jpg,73,(unused),288.760848649185,296.466475846632,7.64839918845961,animal,0.767758500292985,0,1,1
36,1,animal,0,0,animals,1,kangaroo.jpg,115,(unused),299.01850928536,305.423081451442,6.3592713707036,animal,0.878593884737711,0,1,1
37,1,animal,0,0,animals,1,baldeagle.jpg,71,(unused),307.991887175438,314.663445718549,6.61930706138244,animal,0.682632409066173,0,1,1
38,1,tool,0,0,animals,1,eraser.jpg,117,(unused),317.215491666009,321.918879158945,4.65334175743972,tool,1.1585428362805,0,2,1
39,1,tool,0,0,animals,1,lighterbic.jpg,69,(unused),324.47088341063,328.874118746066,4.3526799242817,tool,1.18356414923619,0,2,1
40,1,tool,0,0,animals,1,thermometer.jpg,79,(unused),331.426103112076,335.912672903424,4.44282172880747,tool,1.0172871776831,0,2,1
41,1,animal,0,0,animals,1,starfish.jpg,105,(unused),338.481371180619,346.020105592012,7.49891624745272,animal,0.839426158036076,0,1,1
42,1,animal,0,0,animals,1,wasp.jpg,104,(unused),348.572296512469,354.426542521382,5.79827557638458,animal,0.953293466689502,0,1,1
43,1,tool,0,0,animals,1,wrench.jpg,118,(unused),356.978574997899,363.082996289429,6.0602613797543,tool,1.02621295984773,0,2,1
44,1,tool,0,0,animals,1,electricsander.jpg,103,(unused),365.635041916152,371.722835253937,6.04242901433451,tool,1.22478779830908,0,2,1
45,1,animal,0,0,animals,1,hedgehog.jpg,108,(unused),374.274853938775,380.6795374005,6.35272570146532,animal,0.810454010170361,0,1,1
46,1,tool,0,0,animals,1,pliers2.jpg,70,(unused),383.231539086291,388.201842394177,4.93167309249933,tool,1.23148125290663,0,2,1
47,1,animal,0,0,animals,1,cheetah.jpg,67,(unused),390.77050571107,395.640720239032,4.81027842303772,animal,0.727911132482404,0,1,1
48,1,animal,0,0,animals,1,dolphin.jpg,86,(unused),398.192711019776,404.86432889918,6.61991262731664,animal,0.944702212923403,0,1,1
49,1,animal,0,0,animals,1,seal.jpg,107,(unused),407.416320642134,412.036322040546,4.5694843819862,animal,1.07005574497089,0,1,1
50,1,tool,0,0,animals,1,ducttape.jpg,83,(unused),414.588047251286,420.225785711019,5.59108852473756,tool,0.898943667372805,0,2,1
51,1,tool,0,0,animals,1,gardenhose.jpg,114,(unused),422.777804716593,430.316666460464,7.48829690015227,tool,1.1885156827102,0,2,1
52,1,tool,0,0,animals,1,magnifyingglass.jpg,74,(unused),432.868695729615,437.271731566811,4.36295282987325,tool,0.649736688912526,0,2,1
53,1,animal,0,0,animals,1,seaslug.jpg,119,(unused),439.840571288899,445.911672846333,6.01673838650958,animal,1.08918929396896,0,1,1
54,1,animal,0,0,animals,1,flea.jpg,77,(unused),448.463732264735,452.883569253504,4.35732614508377,animal,1.18059091984651,0,1,1
55,1,animal,0,0,animals,1,prayingmantis.jpg,96,(unused),455.435595636024,459.605300641634,4.12748884156676,animal,0.755110568497912,0,1,1
56,1,tool,0,0,animals,1,hoe.jpg,91,(unused),462.157322854576,466.5938298136,4.38745526260783,tool,0.648912716280392,0,2,1
57,1,tool,0,0,animals,1,tubeflaring.jpg,109,(unused),469.145848498439,474.449730823985,5.25808823547606,tool,1.34235608796735,0,2,1
58,1,animal,0,0,animals,1,crow.jpg,75,(unused),477.00178318618,481.47170385516,4.43275607832286,animal,0.619685903458958,0,1,1
59,1,animal,0,0,animals,1,catfish.jpg,87,(unused),484.006983290611,491.796026090361,7.74229164790633,animal,0.715834753522358,0,1,1
60,1,animal,0,0,animals,1,rooster.jpg,106,(unused),494.364736555551,498.56776482336,4.14266171088367,animal,0.696390731382053,0,1,1
