trial,phase,object,toShock,seenBefore,shockedCategory,responseSide,filename,num,name,onsetFixationCross,onsetStimulus,interTrialTime,response,reactionTime,wasShocked,buttonPressed,isResponseCorrect
1,1,animal,0,0,animals,1,firebug.jpg,15,(unused),0.0165037176914211,6.77134855937902,6.22456603829509,,2.51801465635299,0,,0
2,1,tool,0,0,animals,1,scale.jpg,43,(unused),9.3066881349223,15.4447473268197,6.06748704705765,tool,0.529360880768763,0,2,1
3,1,tool,0,0,animals,1,pressuregauge.jpg,38,(unused),18.0134327745457,22.8669930483522,4.78495924768182,tool,0.546374360050095,0,2,1
4,1,animal,0,0,animals,1,cat.jpg,8,(unused),25.4189912060406,32.290691386487,6.80685989937875,animal,0.515091304122052,0,1,1
5,1,tool,0,0,animals,1,plunger.jpg,30,(unused),34.8427212971105,42.8318993194607,7.93395505513607,tool,0.458355544351207,0,2,1
6,1,tool,0,0,animals,1,shovel.jpg,52,(unused),45.3839311545046,50.6043170520959,5.16109780473765,tool,0.78323265407721,0,2,1
7,1,tool,0,0,animals,1,anvil.jpg,6,(unused),53.1730955134706,60.0281135356668,6.78935622885356,tool,0.511012495261184,0,2,1
8,1,animal,0,0,animals,1,partridge.jpg,33,(unused),62.5800946943091,68.2176150530722,5.57914534593944,animal,0.481741100037198,0,1,1
9,1,animal,0,0,animals,1,heckcattle.jpg,37,(unused),70.7695686283566,74.9392925574327,4.10052700215937,animal,0.479350970003907,0,1,1
10,1,tool,0,0,animals,1,abacus.jpg,12,(unused),77.4912884699638,85.4304585059699,7.87848828300207,tool,0.59065430932219,0,2,1
11,1,tool,0,0,animals,1,monkeywrench.jpg,16,(unused),87.9824842470159,92.5191027582716,4.47295643397369,tool,0.51931733113679,0,2,1
12,1,tool,0,0,animals,1,nailgun.jpg,25,(unused),95.0710239391472,102.126330816833,6.98624374292376,tool,0.411380123689014,0,2,1
13,1,animal,0,0,animals,1,armadillo.jpg,57,(unused),104.678314862106,109.148265680337,4.40109802553518,animal,0.665901388854081,0,1,1
14,1,animal,0,0,animals,1,herculesbeetle.jpg,28,(unused),111.716949203643,117.67132600899,5.8967235485042,animal,0.709203091132167,0,1,1
15,1,animal,0,0,animals,1,caterpillarpeacockmoth.jpg,1,(unused),120.223297224793,126.327760212097,6.04094728294793,animal,0.611099992237996,0,1,1
16,1,tool,0,0,animals,1,edger.jpg,40,(unused),128.87976767115,134.517092380514,5.60251290644017,tool,0.825180526662507,0,2,1
17,1,animal,0,0,animals,1,salamander.jpg,9,(unused),137.069240963724,144.207786076306,7.07120057546688,animal,0.595988160966044,0,1,1
18,1,animal,0,0,animals,1,chinchilla.jpg,19,(unused),146.759771725262,154.732188046656,7.91243215267252,animal,0.517960294077056,0,1,1
19,1,animal,0,0,animals,1,emu.jpg,26,(unused),157.301046371473,163.95593783096,6.58445735917887,animal,0.519602145343697,0,1,1
20,1,tool,0,0,animals,1,workbench.jpg,11,(unused),166.507919631076,171.544923026395,4.96550475180601,tool,0.51705068474098,0,2,1
21,1,animal,0,0,animals,1,frog.jpg,5,(unused),174.113611360751,180.668470810713,6.49984145850773,animal,0.582804278114509,0,1,1
22,1,animal,0,0,animals,1,hippo.jpg,45,(unused),183.220383331698,188.207417870552,4.91824401071824,tool,0.546161711605237,0,2,0
23,1,tool,0,0,animals,1,television.jpg,54,(unused),190.759420839291,196.830522396724,6.00524464010569,tool,0.596473435622784,0,2,1
24,1,tool,0,0,animals,1,electricbreaker.jpg,41,(unused),199.382519592202,207.088097396195,7.65263224746085,tool,0.503439901315687,0,2,1
25,1,animal,0,0,animals,1,porcupine.jpg,60,(unused),209.64021422647,215.911453251661,6.197894509278,animal,0.721388199839339,0,1,1
26,1,animal,0,0,animals,1,seahorse.jpg,42,(unused),218.463492463649,223.317056907033,4.79773953774722,animal,0.600100647182671,0,1,1
27,1,tool,0,0,animals,1,floorbuffer.jpg,56,(unused),225.869024273996,232.190350186765,6.25057426843849,tool,0.618190518894153,0,2,1
28,1,animal,0,0,animals,1,quail.jpg,47,(unused),234.759017673235,239.779454696259,4.94243050498081,animal,0.58141965769687,0,1,1
29,1,tool,0,0,animals,1,compass.jpg,32,(unused),242.347977851205,247.718670276879,5.31400744866638,tool,0.644555397966997,0,2,1
30,1,tool,0,0,animals,1,bucket.jpg,22,(unused),250.270620003323,254.607087575878,4.27602830406879,tool,0.537575268889668,0,2,1
31,1,animal,0,0,animals,1,yak.jpg,53,(unused),257.159119410922,264.447785345026,7.22854004601739,animal,0.664259216850724,0,1,1
32,1,tool,0,0,animals,1,washboard.jpg,59,(unused),267.016483622221,273.487967882708,6.40752836321571,tool,0.53542857802654,0,2,1
33,1,animal,0,0,animals,1,leopard.jpg,50,(unused),276.056571221834,280.926857915558,4.8037076495624,animal,0.653821481790828,0,1,1
34,1,animal,0,0,animals,1,rhino.jpg,35,(unused),283.478774606119,289.900245107001,6.34825749973207,animal,0.599842774860008,0,1,1
35,1,tool,0,0,animals,1,sawblade.jpg,34,(unused),292.468898481055,298.239783733645,5.69517865917291,tool,0.391711585844178,0,2,1
36,1,tool,0,0,animals,1,clamp.jpg,31,(unused),300.791773872915,305.828820246954,4.96550305596926,tool,0.598794607261198,0,2,1
37,1,animal,0,0,animals,1,flounder.jpg,29,(unused),308.380848233158,314.618749562996,6.16941779363486,animal,0.617407279825557,0,1,1
38,1,tool,0,0,animals,1,kettle.jpg,58,(unused),317.170693836916,322.774842181497,5.54275384292926,tool,0.545659758639204,0,2,1
39,1,tool,0,0,animals,1,spraybottle.jpg,49,(unused),325.326802171516,332.615613078617,7.22781069778676,tool,0.824350460032747,0,2,1
40,1,animal,0,0,animals,1,rat.jpg,48,(unused),335.167507959082,339.870906998539,4.62882000936195,animal,0.616443465983593,0,1,1
41,1,animal,0,0,animals,1,ferret.jpg,21,(unused),342.439620991833,350.195373565264,7.69353481232433,animal,0.7043596459323,0,1,1
42,1,animal,0,0,animals,1,panda.jpg,18,(unused),352.747331630863,360.336276734207,7.51649832996218,animal,0.63902878355475,0,1,1
43,1,tool,0,0,animals,1,viceclamp.jpg,4,(unused),362.888254044009,370.126890502408,7.17468505122003,tool,0.544666437019259,0,2,1
44,1,tool,0,0,animals,1,spoon.jpg,44,(unused),372.678907262826,377.182182946942,4.4373221390141,tool,0.712866866678041,0,2,1
45,1,animal,0,0,animals,1,mountainsheep.jpg,7,(unused),379.734202914727,383.920544854709,4.1211664017167,animal,0.527651354054342,0,1,1
46,1,animal,0,0,animals,1,beta.jpg,17,(unused),386.489264621265,393.477778718605,6.92835663062223,animal,0.569817969082351,0,1,1
47,1,animal,0,0,animals,1,tragopan.jpg,55,(unused),396.029690277379,404.018885298776,7.93180261211293,animal,0.64820474036037,0,1,1
48,1,tool,0,0,animals,1,blender.jpg,24,(unused),406.587644515947,412.425247817226,5.77508366283505,tool,0.641204982195859,0,2,1
49,1,animal,0,0,animals,1,mahimahi.jpg,39,(unused),414.97727676564,421.498697808919,6.45286182961037,animal,0.55715207603248,0,1,1
50,1,tool,0,0,animals,1,italiangardeningtool.jpg,2,(unused),424.05071136197,430.922441691668,6.79640846574929,tool,0.515962425052066,0,2,1
51,1,tool,0,0,animals,1,woodchipper.jpg,13,(unused),433.491131308971,439.528844173914,5.96472862249122,tool,0.567791875225566,0,2,1
52,1,tool,0,0,animals,1,hourglass.jpg,10,(unused),442.097555922051,449.419497007847,7.2618427388756,tool,0.532578832274794,0,2,1
53,1,animal,0,0,animals,1,cockatiel.jpg,20,(unused),451.971612234438,456.991983506435,4.95195772517917,animal,0.786433927273492,0,1,1
54,1,tool,0,0,animals,1,vegetablepeeler.jpg,3,(unused),459.543950231925,464.864556732232,5.24283447675912,tool,0.540193121993525,0,2,1
55,1,animal,0,0,animals,1,racoon.jpg,23,(unused),467.416492987733,472.787067382294,5.30551688016489,animal,0.635024706349441,0,1,1
56,1,animal,0,0,animals,1,phasmagigas.jpg,36,(unused),475.339110443123,482.577783465509,7.17299335197708,animal,0.621760639318154,0,1,1
57,1,animal,0,0,animals,1,squirel.jpg,46,(unused),485.129743776264,491.434450715916,6.24184331187056,animal,0.759479534110596,0,1,1
58,1,tool,0,0,animals,1,blower.jpg,27,(unused),493.989902245863,499.590585671664,5.54094573098975,tool,0.487715462909819,0,2,1
59,1,tool,0,0,animals,1,loom.jpg,14,(unused),502.142493381598,507.079460597815,4.87058450547754,tool,0.5531386974626,0,2,1
60,1,tool,0,0,animals,1,flashlight.jpg,51,(unused),509.631473509392,513.867836265188,4.16557440592623,tool,0.578061544244747,0,2,1
