trial,phase,object,toShock,seenBefore,shockedCategory,responseSide,filename,num,name,onsetFixationCross,onsetStimulus,interTrialTime,response,reactionTime,wasShocked,buttonPressed,isResponseCorrect
1,1,animal,0,0,animals,1,chimp.jpg,141,(unused),0.0362249700003758,7.29186161518624,7.0862839417669,animal,0.763876190685323,0,1,1
2,1,tool,0,0,animals,1,wheeldolly.jpg,148,(unused),9.87760123001863,14.5313398133585,4.60144427098823,tool,0.690654328687287,0,2,1
3,1,tool,0,0,animals,1,ladder.jpg,158,(unused),17.0835610505594,21.3536405165439,4.21115994536039,tool,0.807741568071833,0,2,1
4,1,tool,0,0,animals,1,dremel.jpg,165,(unused),23.9058040209502,28.1759040141505,4.22017939086518,tool,0.695710117811245,0,2,1
5,1,animal,0,0,animals,1,otter.jpg,146,(unused),30.7281140255304,38.3342609003259,7.55926288472535,animal,1.11285650123648,0,1,1
6,1,tool,0,0,animals,1,carpetblower.jpg,168,(unused),40.8864491015388,47.4917713595838,6.54901629968232,tool,0.935876298453309,0,2,1
7,1,animal,0,0,animals,1,moth.jpg,159,(unused),50.0439961249001,54.2139781507567,4.12044687289537,animal,1.2718426748736,0,1,1
8,1,animal,0,0,animals,1,palmcockatoo.jpg,160,(unused),56.7661875206609,64.722448834685,7.91135868640787,animal,0.883984458919713,0,1,1
9,1,animal,0,0,animals,1,penguin.jpg,164,(unused),67.2914680699693,71.7617414539963,4.41305131355134,animal,0.867235533711778,0,1,1
10,1,tool,0,0,animals,1,pencil.jpg,161,(unused),74.3306445822157,78.9843347341555,4.59178986327209,tool,0.875767478550188,0,2,1
11,1,animal,0,0,animals,1,deer.jpg,142,(unused),81.5365601409472,86.3068657270442,4.70620404767157,animal,0.995583875433454,0,1,1
12,1,tool,0,0,animals,1,electricdrill.jpg,157,(unused),88.8759285826621,93.9464687563481,5.03230042653659,tool,0.809333389515814,0,2,1
13,1,tool,0,0,animals,1,drill.jpg,124,(unused),96.498812194631,101.936450512785,5.39724703648134,tool,0.759645339049712,0,2,1
14,1,animal,0,0,animals,1,shrimp.jpg,177,(unused),104.488766367622,109.342650758342,4.79790297801579,animal,0.921875454271458,0,1,1
15,1,tool,0,0,animals,1,measuringdevice.jpg,145,(unused),111.894843449883,116.982263409778,5.03588441577341,tool,0.741621481293009,0,2,1
16,1,tool,0,0,animals,1,telephone.jpg,138,(unused),119.534475345584,125.789540115365,6.21173306664782,tool,0.833758851987568,0,2,1
17,1,tool,0,0,animals,1,wateringcan.jpg,123,(unused),128.358369153165,133.42901484957,5.0280037327665,tool,0.800644603918727,0,2,1
18,1,animal,0,0,animals,1,earthworm.jpg,137,(unused),135.998007463621,141.185497921673,5.13804122525539,animal,0.894531278291765,0,1,1
19,1,animal,0,0,animals,1,waterbuffalo.jpg,173,(unused),143.754386937431,149.30885462182,5.49676805343693,animal,0.947551473223257,0,1,1
20,1,animal,0,0,animals,1,angelfish.jpg,132,(unused),151.861055331805,156.815002522977,4.90189020595359,animal,1.06776237753706,0,1,1
21,1,tool,0,0,animals,1,camera.jpg,133,(unused),159.38387229447,163.603896144529,4.16512766117361,tool,0.836115632960855,0,2,1
22,1,tool,0,0,animals,1,jumpercables.jpg,167,(unused),166.156124758698,173.495479087952,7.28036899200556,tool,0.920073228864794,0,2,1
23,1,animal,0,0,animals,1,mink.jpg,134,(unused),176.047585180302,181.568768304877,5.45569952192601,animal,1.2371420579027,0,1,1
24,1,animal,0,0,animals,1,elephantafrican.jpg,153,(unused),184.12090101846,192.144086508798,7.96775963532883,animal,0.832348568108955,0,1,1
25,1,tool,0,0,animals,1,caulkinggun.jpg,156,(unused),194.712953393651,201.118118939233,6.35361374477546,tool,0.694745338664688,0,2,1
26,1,animal,0,0,animals,1,bluejay.jpg,139,(unused),203.670312272249,211.193045522362,7.46305189040962,animal,0.929213613211232,0,1,1
27,1,tool,0,0,animals,1,corkscrew.jpg,151,(unused),213.745274778007,220.584097324074,6.7921330155619,tool,0.615576998816323,0,2,1
28,1,animal,0,0,animals,1,aardvark.jpg,175,(unused),223.136328824883,229.891802214555,6.70457663800659,animal,0.82839098503473,0,1,1
29,1,animal,0,0,animals,1,fly.jpg,147,(unused),232.443987849866,237.047634253177,4.55039366951586,animal,1.28692216010245,0,1,1
30,1,tool,0,0,animals,1,saw.jpg,163,(unused),239.599864150297,244.820697542433,5.17550497413285,tool,0.725197142686511,0,2,1
31,1,animal,0,0,animals,1,giraffe.jpg,171,(unused),247.372886385121,253.2944490066,5.86077853804274,animal,1.1928699850514,0,1,1
32,1,animal,0,0,animals,1,gecko.jpg,122,(unused),255.846535533947,260.983820912283,5.09508420479681,animal,0.691797438021695,0,1,1
33,1,tool,0,0,animals,1,pruner.jpg,135,(unused),263.536220479672,269.707841154684,6.12028011175324,tool,0.69727756318639,0,2,1
34,1,tool,0,0,animals,1,ruler.jpg,166,(unused),272.260049562375,278.631838817147,6.32231267952751,tool,1.09566816531378,0,2,1
35,1,animal,0,0,animals,1,lemur.jpg,127,(unused),281.184062940988,288.873656797192,7.64442499241627,animal,1.04432350437833,0,1,1
36,1,animal,0,0,animals,1,sparrow.jpg,172,(unused),291.425840828814,296.546586723692,5.06892259834994,animal,1.1567654989567,0,1,1
37,1,tool,0,0,animals,1,crutches.jpg,121,(unused),299.098782943348,307.005091598264,7.86608827312218,tool,0.627653737246874,0,2,1
38,1,tool,0,0,animals,1,binoculars.jpg,144,(unused),309.557402321297,313.643959817387,4.04083064087431,tool,0.990117221254195,0,2,1
39,1,tool,0,0,animals,1,chainsaw.jpg,179,(unused),316.196139358681,321.68401707549,5.43703559149415,tool,0.73847536472158,0,2,1
40,1,animal,0,0,animals,1,dog.jpg,130,(unused),324.236136318087,330.10753523502,5.82588501391416,animal,0.867386280453502,0,1,1
41,1,animal,0,0,animals,1,lobsterspiny.jpg,155,(unused),332.676379988969,338.898049865151,6.17486703830555,animal,1.01027366429821,0,1,1
42,1,animal,0,0,animals,1,beetle.jpg,125,(unused),341.450292271044,348.956427984165,7.46020427813977,animal,0.960381624624461,0,1,1
43,1,tool,0,0,animals,1,faxmachine.jpg,174,(unused),351.508564546601,358.24732397148,6.69248011170226,tool,0.915041174334192,0,2,1
44,1,tool,0,0,animals,1,typewriter.jpg,136,(unused),360.816217156829,368.472222393835,7.60329408558736,tool,1.21351234578401,0,2,1
45,1,tool,0,0,animals,1,lantern.jpg,140,(unused),371.041293267896,375.294683145157,4.18754142766998,tool,1.63139995414508,0,2,1
46,1,animal,0,0,animals,1,crab.jpg,143,(unused),377.846870063418,385.769939831576,7.86177859342387,animal,0.771148277648763,0,1,1
47,1,tool,0,0,animals,1,tape.jpg,126,(unused),388.305489120629,395.561322057317,7.19386765260655,tool,0.841679791415572,0,2,1
48,1,tool,0,0,animals,1,beadingtool.jpg,154,(unused),398.113550350748,403.634623462276,5.47874075157294,tool,0.752754930006631,0,2,1
49,1,tool,0,0,animals,1,glove.jpg,150,(unused),406.18681583308,413.192507324421,6.95102065015546,tool,0.756239745639959,0,2,1
50,1,animal,0,0,animals,1,duck.jpg,149,(unused),415.744706109979,423.584349423944,7.79309622429879,animal,0.793836303738999,0,1,1
51,1,animal,0,0,animals,1,octopus.jpg,170,(unused),426.136589584672,431.29071305331,5.11194157600666,animal,1.36598882608473,0,1,1
52,1,animal,0,0,animals,1,prairiedog.jpg,152,(unused),433.859623558498,440.248080912565,6.34152154824534,animal,1.12196769844786,0,1,1
53,1,tool,0,0,animals,1,oven.jpg,128,(unused),442.800292848372,450.789985620097,7.94566047318727,tool,0.829537301746768,0,2,1
54,1,tool,0,0,animals,1,magnet.jpg,180,(unused),453.342306927476,458.863391585563,5.47048682502239,tool,0.764602661685103,0,2,1
55,1,tool,0,0,animals,1,smartphone.jpg,176,(unused),461.432271620664,465.88583649244,4.40993740210327,tool,1.05340904256991,0,2,1
56,1,animal,0,0,animals,1,highlandcow.jpg,178,(unused),468.438020203324,473.825688542531,5.3277039872074,animal,1.80103558323367,0,1,1
57,1,animal,0,0,animals,1,stickinsect.jpg,162,(unused),476.394592632964,482.499474518081,6.05282364226295,animal,0.769612585310824,0,1,1
58,1,animal,0,0,animals,1,brown_bear.jpg,129,(unused),485.051698962659,492.524393595947,7.4146030330808,animal,0.867165933620527,0,1,1
59,1,tool,0,0,animals,1,hairbrush.jpg,131,(unused),495.076563515108,500.147315696446,5.01383956074411,tool,0.776600819367332,0,2,1
60,1,animal,0,0,animals,1,springhare.jpg,169,(unused),502.699568045208,509.454982739872,6.70012398316231,animal,0.779297582353593,0,1,1
