trial,phase,object,toShock,seenBefore,shockedCategory,responseSide,filename,num,name,onsetFixationCross,onsetStimulus,interTrialTime,response,reactionTime,wasShocked,buttonPressed,isResponseCorrect
1,3,tool,0,0,animals,1,ducttape.jpg,83,(unused),0.0183489127616667,6.43958576120303,5.96251654024287,,2.51071736707036,0,,0
2,3,animal,0,0,animals,1,manatee.jpg,65,(unused),8.95827150421019,15.3463937325478,6.32670673396143,animal,0.981654501123103,0,1,1
3,3,tool,0,0,animals,1,mixer.jpg,116,(unused),17.8984040782316,25.6708054532937,7.70775057374383,tool,0.550660364831856,0,2,1
4,3,animal,0,0,animals,1,baboon.jpg,113,(unused),28.2394982779647,34.0771371810192,5.77857279544387,animal,0.576662490674607,0,1,1
5,3,tool,0,0,animals,1,eraser.jpg,117,(unused),36.6291042272455,43.6509759056162,6.96410062553961,tool,0.642401009422429,0,2,1
6,3,tool,0,0,animals,1,shoehorn.jpg,102,(unused),46.2029477628935,52.4075287171622,6.15056158932173,tool,1.0501234515632,0,2,1
7,3,animal,0,0,animals,1,stinkbug.jpg,62,(unused),54.9761564322785,61.3809200781825,6.33691771636665,animal,0.851121391792276,0,1,1
8,3,animal,0,0,animals,1,malaysianjunglenymph.jpg,85,(unused),63.9328742949406,71.0881846365828,7.09466783674488,animal,1.09528863418109,0,1,1
9,3,animal,0,0,animals,1,caiman.jpg,64,(unused),73.6401520035461,79.6611965019169,5.95693436606057,animal,0.680612940700485,0,1,1
10,3,tool,0,0,animals,1,fishingpole.jpg,120,(unused),82.2299143440518,88.9516120548255,6.65665735477092,tool,0.799649883796974,0,2,1
11,3,tool,0,0,animals,1,hammer.jpg,63,(unused),91.5201820373322,95.8733805201196,4.2868007127649,tool,0.671176224941519,0,2,1
12,3,tool,0,0,animals,1,stopwatch.jpg,111,(unused),98.4254120344267,103.645801139385,5.14440816417479,tool,0.595070212475093,0,2,1
13,3,animal,0,0,animals,1,shark.jpg,110,(unused),106.214537904986,114.120378905531,7.83645948903394,animal,1.6770287078607,0,1,1
14,3,tool,0,0,animals,1,curlingiron.jpg,99,(unused),116.672374497325,124.194564667258,7.46561233402792,tool,0.578345075504785,0,2,1
15,3,animal,0,0,animals,1,kangaroo.jpg,115,(unused),126.746571164101,132.417415747275,5.60371315060748,animal,0.75766352280516,0,1,1
16,3,tool,0,0,animals,1,pliers2.jpg,70,(unused),134.969361624878,140.172975237201,5.15403096516668,tool,0.539370111571316,0,2,1
17,3,tool,0,0,animals,1,thermometer.jpg,79,(unused),142.725198231329,148.579452900133,5.78186054545093,tool,0.554435436019503,0,2,1
18,3,tool,0,0,animals,1,reflexhammer.jpg,93,(unused),151.131487621808,157.669629311744,6.47903717088546,tool,0.504615722129074,0,2,1
19,3,animal,0,0,animals,1,rooster.jpg,106,(unused),160.204939217184,168.02740534899,7.76397678161513,animal,0.737248951351376,0,1,1
20,3,animal,0,0,animals,1,turtle.jpg,78,(unused),170.579375602584,176.35024161097,5.71615762346053,animal,0.712869111835516,0,1,1
21,3,tool,0,0,animals,1,keys.jpg,72,(unused),178.902235919818,183.422272663417,4.45194019340934,tool,0.910101987861708,0,2,1
22,3,tool,0,0,animals,1,mallet.jpg,82,(unused),185.974212447022,192.011968611422,5.97498038528208,tool,0.505784165997738,0,2,1
23,3,animal,0,0,animals,1,orangutan.jpg,73,(unused),194.563995635415,200.268083617346,5.65033009284719,animal,0.600003784692944,0,1,1
24,3,tool,0,0,animals,1,tubeflaring.jpg,109,(unused),202.820175430156,210.359102283581,7.48368582311142,tool,0.556577315831419,0,2,1
25,3,tool,0,0,animals,1,generator.jpg,66,(unused),212.911044953817,220.683561794098,7.70296001066732,tool,0.874463968757937,0,2,1
26,3,animal,0,0,animals,1,cheetah.jpg,67,(unused),223.23543935478,229.489977618992,6.18733702840639,animal,0.581439543373563,0,1,1
27,3,animal,0,0,animals,1,ant.jpg,112,(unused),232.05873908132,238.963623644967,6.85995383909962,animal,0.687322111396952,0,1,1
28,3,animal,0,0,animals,1,crow.jpg,75,(unused),241.499111559287,245.768890590932,4.20095658519846,animal,0.556217769968953,0,1,1
29,3,tool,0,0,animals,1,lighterbic.jpg,69,(unused),248.320920501555,252.724157761412,4.33323851293039,tool,0.721267923569485,0,2,1
30,3,tool,0,0,animals,1,hoe.jpg,91,(unused),255.276115185537,263.298710125209,7.9580907941459,tool,0.567157137257709,0,2,1
31,3,animal,0,0,animals,1,dragonfly.jpg,68,(unused),265.850710207318,271.488072442879,5.59642370886172,animal,1.45422188951125,0,1,1
32,3,animal,0,0,animals,1,cow.jpg,80,(unused),274.040150143273,279.21040681604,5.13835013476196,animal,0.688141593715045,0,1,1
33,3,animal,0,0,animals,1,prayingmantis.jpg,96,(unused),281.762603189021,285.998897948632,4.17816006489338,animal,0.621985475758265,0,1,1
34,3,tool,0,0,animals,1,stove.jpg,101,(unused),288.550978856394,293.237759884945,4.61919086482946,tool,0.579438466981173,0,2,1
35,3,tool,0,0,animals,1,magnifyingglass.jpg,74,(unused),295.789763495158,302.17777570368,6.32153838471249,tool,0.790938033024304,0,2,1
36,3,tool,0,0,animals,1,avocadoslicer.jpg,76,(unused),304.729757503796,311.835007579009,7.04773262043787,tool,0.587020041554752,0,2,1
37,3,animal,0,0,animals,1,gerbil.jpg,90,(unused),314.387032999318,321.392164145355,6.94493282556601,animal,0.547231047827609,0,1,1
38,3,animal,0,0,animals,1,dolphin.jpg,86,(unused),323.944184113141,328.330659030567,4.3252923471929,animal,0.771087637459459,0,1,1
39,3,tool,0,0,animals,1,electricsander.jpg,103,(unused),330.882708185393,337.287451304147,6.34912087508412,tool,0.602809268777946,0,2,1
40,3,animal,0,0,animals,1,macaw.jpg,81,(unused),339.839389804806,346.711102814721,6.80211621272654,animal,0.662444167755893,0,1,1
41,3,animal,0,0,animals,1,goldfish.jpg,98,(unused),349.263116688509,356.601896452074,7.27225775698452,animal,0.600970164428873,0,1,1
42,3,animal,0,0,animals,1,pelican.jpg,92,(unused),359.153891723132,364.374261904624,5.16040197783126,animal,0.989068651128946,0,1,1
43,3,tool,0,0,animals,1,clippers.jpg,61,(unused),366.926363660273,371.829925184953,4.84433021852213,tool,0.763813649400163,0,2,1
44,3,tool,0,0,animals,1,paintgun.jpg,94,(unused),374.398635008669,381.120254780421,6.64740999197344,tool,0.607908020406285,0,2,1
45,3,tool,0,0,animals,1,gardenhose.jpg,114,(unused),383.672180130873,390.694017811151,6.95080037413038,tool,0.615485425402767,0,2,1
46,3,animal,0,0,animals,1,hedgehog.jpg,108,(unused),393.262709032138,397.916112273247,4.57485819278682,animal,0.620814145258919,0,1,1
47,3,tool,0,0,animals,1,burnisher.jpg,95,(unused),400.468114921249,405.721944036574,5.19596148644756,tool,0.555189167309436,0,2,1
48,3,animal,0,0,animals,1,seal.jpg,107,(unused),408.273980361932,412.710493094218,4.38456564787257,animal,0.652946191283263,0,1,1
49,3,animal,0,0,animals,1,baldeagle.jpg,71,(unused),415.262528778102,422.984843907061,7.65149356548521,animal,0.608026051519573,0,1,1
50,3,tool,0,0,animals,1,level.jpg,100,(unused),425.536898514411,431.674772004303,6.070799820668,tool,0.892511823959012,0,2,1
51,3,tool,0,0,animals,1,padlock.jpg,84,(unused),434.226722051483,439.997591267237,5.70069989586002,tool,0.605067255282847,0,2,1
52,3,animal,0,0,animals,1,flea.jpg,77,(unused),442.549631441436,450.505534953567,7.89340907675551,animal,1.09458269266179,0,1,1
53,3,animal,0,0,animals,1,ram.jpg,97,(unused),453.057484038537,457.577353678305,4.45670089151617,animal,0.715074176780945,0,1,1
54,3,tool,0,0,animals,1,carjack.jpg,88,(unused),460.129450302166,465.399993649413,5.21088995882014,tool,0.768755240036171,0,2,1
55,3,animal,0,0,animals,1,seaslug.jpg,119,(unused),467.968640287996,475.591038551912,7.55044290568365,animal,0.753123494541796,0,1,1
56,3,animal,0,0,animals,1,wasp.jpg,104,(unused),478.159605006315,483.83045632496,5.60341828742797,animal,0.699108865098424,0,1,1
57,3,animal,0,0,animals,1,starfish.jpg,105,(unused),486.382435238445,491.252642068726,4.80056918771878,animal,0.643215039216557,0,1,1
58,3,tool,0,0,animals,1,airhorn.jpg,89,(unused),493.825407928996,499.091868297805,5.20611008943749,tool,0.845370903149615,0,2,1
59,3,tool,0,0,animals,1,wrench.jpg,118,(unused),501.643849777184,506.814351813542,5.10750006657507,tool,0.529147911586733,0,2,1
60,3,animal,0,0,animals,1,catfish.jpg,87,(unused),509.366311482824,514.786950313392,5.36722927382751,animal,0.966905423080789,0,1,1
