trial,phase,object,toShock,seenBefore,shockedCategory,responseSide,filename,num,name,onsetFixationCross,onsetStimulus,interTrialTime,response,reactionTime,wasShocked,buttonPressed,isResponseCorrect
1,2,animal,1,0,animals,1,penguin.jpg,164,(unused),0.031677421911354,9.08811040621913,8.93294938776123,0,2.65310413393081,1,2,0
2,2,tool,0,0,animals,1,corkscrew.jpg,151,(unused),13.6751044680996,21.4975144709797,7.76417932106867,0,0.522094089098118,0,2,1
3,2,animal,1,0,animals,1,dog.jpg,130,(unused),25.8509502989391,32.5725707121633,6.66168817148716,1,0.850597448174085,1,1,1
4,2,tool,0,0,animals,1,faxmachine.jpg,174,(unused),37.1427459819511,44.4982226576562,7.28956531387419,0,0.569396661214341,0,2,1
5,2,tool,0,0,animals,1,measuringdevice.jpg,145,(unused),48.8515375678721,56.5738684129301,7.66530261616172,0,0.695366649238167,0,2,1
6,2,tool,0,0,animals,1,ladder.jpg,158,(unused),60.9272218115525,69.8671436544287,8.87251774561943,0,0.640664039532112,0,2,1
7,2,animal,1,0,animals,1,chimp.jpg,141,(unused),74.2205105239937,81.5925757028267,7.30183906355972,1,1.18779116866244,1,1,1
8,2,animal,1,0,animals,1,duck.jpg,149,(unused),86.1461050576136,92.5175733454121,6.31785787853658,1,0.736230752448591,1,1,1
9,2,tool,0,0,animals,1,wateringcan.jpg,123,(unused),97.0709833861392,103.992732927967,6.85741677757418,0,0.535466244404233,0,2,1
10,2,animal,0,0,animals,1,lobsterspiny.jpg,155,(unused),108.329366642143,116.568655799766,8.18006799384193,1,0.836192841368756,0,1,0
11,2,tool,0,0,animals,1,wheeldolly.jpg,148,(unused),120.922104777931,127.643702098112,6.65611066747178,1,0.718650531383901,0,1,0
12,2,animal,0,0,animals,1,gecko.jpg,122,(unused),131.997097513245,139.352504589081,7.28535568405613,0,2.50648447443791,0,2,1
13,2,tool,0,0,animals,1,pruner.jpg,135,(unused),143.705854780337,152.328868858754,8.56498766377639,0,0.75966698453658,0,2,1
14,2,tool,0,0,animals,1,chainsaw.jpg,179,(unused),156.682233483162,162.820108576737,6.07370968656074,0,1.27179403989749,0,2,1
15,2,tool,0,0,animals,1,oven.jpg,128,(unused),167.173413544115,176.396852213802,9.16461506691583,0,0.960630670083447,0,2,1
16,2,animal,1,0,animals,1,bluejay.jpg,139,(unused),180.750220366313,188.906229914004,8.08359739041954,0,1.27987852964679,1,2,0
17,2,animal,0,0,animals,1,highlandcow.jpg,178,(unused),193.459755099213,203.417098719215,9.88814738694612,0,1.42659216499851,0,2,1
18,2,animal,1,0,animals,1,moth.jpg,159,(unused),207.770476814565,216.827108014164,8.988254271952,0,1.97419943699833,1,2,0
19,2,tool,0,0,animals,1,smartphone.jpg,176,(unused),221.380642500739,227.718618177349,6.26869223238102,0,1.28223113348395,0,2,1
20,2,animal,1,0,animals,1,giraffe.jpg,171,(unused),232.071976707759,240.361491952696,8.2367348792331,0,0.783744048589142,1,2,0
21,2,tool,0,0,animals,1,drill.jpg,124,(unused),244.931602433666,253.454559485095,8.46142687640096,0,0.836304457746792,0,2,1
22,2,tool,0,0,animals,1,glove.jpg,150,(unused),257.807958428332,267.698504777674,9.84466827705079,0,0.688957688110804,0,2,1
23,2,animal,1,0,animals,1,angelfish.jpg,132,(unused),272.051920399221,281.191997029638,9.06571251897821,1,1.73712111758186,1,1,1
24,2,tool,0,0,animals,1,caulkinggun.jpg,156,(unused),285.745495914436,293.184368306766,7.39114478365268,0,0.858236434620267,0,2,1
25,2,tool,0,0,animals,1,typewriter.jpg,136,(unused),297.537672632671,304.776341164742,7.16565924876125,0,0.679850689699833,0,2,1
26,2,tool,0,0,animals,1,saw.jpg,163,(unused),309.146345289416,317.10226419691,7.89009430972191,0,0.713363186564493,0,2,1
27,2,animal,0,0,animals,1,aardvark.jpg,175,(unused),321.472248756645,330.862549100923,9.33211564675507,1,0.633688336621162,0,1,0
28,2,tool,0,0,animals,1,telephone.jpg,138,(unused),335.232544244969,341.737367804493,6.44705069321777,0,0.78231484576736,0,2,1
29,2,tool,0,0,animals,1,ruler.jpg,166,(unused),346.090687205023,355.297517165168,9.15413642104014,0,0.773784852714471,0,2,1
30,2,tool,0,0,animals,1,lantern.jpg,140,(unused),359.650821811809,367.223059418703,7.51450725413955,0,0.687900219147195,0,2,1
31,2,animal,1,0,animals,1,sparrow.jpg,172,(unused),371.57641730764,379.915928030189,8.27602765208182,0,1.68346122294997,1,2,0
32,2,animal,1,0,animals,1,otter.jpg,146,(unused),384.48608726314,391.057687566172,6.50683914438842,1,1.28528486778941,1,1,1
33,2,tool,0,0,animals,1,crutches.jpg,121,(unused),395.611010045775,401.815624677399,6.13551221565591,0,0.581702366928312,0,2,1
34,2,animal,1,0,animals,1,waterbuffalo.jpg,173,(unused),406.168977755285,412.39021873697,6.15607130089942,1,1.17761451329216,1,1,1
35,2,animal,0,0,animals,1,mink.jpg,134,(unused),416.943738469656,423.715356284913,6.70721867990321,1,0.838983250827368,0,1,0
36,2,animal,0,0,animals,1,crab.jpg,143,(unused),428.068704872484,436.708464615022,8.58062592875134,0,2.01047828806804,0,2,1
37,2,tool,0,0,animals,1,hairbrush.jpg,131,(unused),441.061798769442,450.135047659212,9.01672408010865,0,0.822437405683104,0,2,1
38,2,tool,0,0,animals,1,carpetblower.jpg,168,(unused),454.488505618005,464.229034743786,9.67566311042745,0,0.833017868582829,0,2,1
39,2,animal,0,0,animals,1,deer.jpg,142,(unused),468.599055867506,475.754325475585,7.09814391051066,1,0.879274197520317,0,1,0
40,2,tool,0,0,animals,1,dremel.jpg,165,(unused),480.1243587873,488.380409004407,8.19166784248941,0,0.704754933752156,0,2,1
41,2,tool,0,0,animals,1,beadingtool.jpg,154,(unused),492.733789665651,501.973936152525,9.17623893946715,0,0.833804956492259,0,2,1
42,2,tool,0,0,animals,1,tape.jpg,126,(unused),506.327295324409,515.667572607717,9.28061301895484,0,0.612778547672406,0,2,1
43,2,animal,1,0,animals,1,earthworm.jpg,137,(unused),520.020881744673,526.942634173131,6.85695061186104,0,1.7692473903453,1,2,0
44,2,animal,1,0,animals,1,stickinsect.jpg,162,(unused),531.496067948375,539.852371483343,8.29416211612405,1,1.07414099876814,1,1,1
45,2,animal,1,0,animals,1,lemur.jpg,127,(unused),544.405831238261,551.410760961639,6.95727407600571,1,0.786264076993575,1,1,1
46,2,tool,0,0,animals,1,jumpercables.jpg,167,(unused),555.947792581789,565.588246398588,9.5694434855583,0,0.593298603018411,0,2,1
47,2,tool,0,0,animals,1,pencil.jpg,161,(unused),569.958261749047,579.648735740186,9.63609958709709,0,0.74042566800199,0,2,1
48,2,tool,0,0,animals,1,binoculars.jpg,144,(unused),584.002107100065,591.741276943629,7.6741155452921,0,0.95145310959424,0,2,1
49,2,animal,1,0,animals,1,shrimp.jpg,177,(unused),596.094475747153,605.43462601872,9.28127131856274,1,1.49274347190476,1,1,1
50,2,animal,1,0,animals,1,palmcockatoo.jpg,160,(unused),609.98823331253,619.845495850289,9.79085882424838,0,0.88643464478082,1,2,0
51,2,animal,1,0,animals,1,fly.jpg,147,(unused),624.399015262237,631.604297988448,7.14818658365143,1,0.987144370993974,1,1,1
52,2,tool,0,0,animals,1,camera.jpg,133,(unused),636.141125620044,644.147031345259,7.93797530457165,0,0.570950309883301,0,2,1
53,2,animal,0,0,animals,1,prairiedog.jpg,152,(unused),648.500387630512,657.03999572873,8.48007314793612,1,0.95557040686117,0,1,0
54,2,animal,0,0,animals,1,brown_bear.jpg,129,(unused),661.393333090516,668.098308871686,6.63508714089815,0,1.56275676964924,0,2,1
55,2,animal,1,0,animals,1,octopus.jpg,170,(unused),672.451647195683,681.40815144769,8.9049287885713,0,1.22743647233892,1,2,0
56,2,tool,0,0,animals,1,magnet.jpg,180,(unused),685.961780872333,694.718223029711,8.69147595442541,0,0.740926017283982,0,2,1
57,2,tool,0,0,animals,1,electricdrill.jpg,157,(unused),699.071570975809,706.693830039989,7.56021068576213,0,0.965908392801794,0,2,1
58,2,animal,1,0,animals,1,springhare.jpg,169,(unused),711.063864955388,718.436024751554,7.30576131727056,0,1.11226248229059,1,2,0
59,2,animal,0,0,animals,1,beetle.jpg,125,(unused),722.989460771955,731.745812802315,8.70290251271187,1,1.03502940099224,0,1,0
60,2,animal,1,0,animals,1,elephantafrican.jpg,153,(unused),736.099285835734,745.706305736164,9.54385153849275,0,1.31213309709801,1,2,0
