trial,phase,object,toShock,seenBefore,shockedCategory,responseSide,filename,num,name,onsetFixationCross,onsetStimulus,interTrialTime,response,reactionTime,wasShocked,buttonPressed,isResponseCorrect
1,3,animal,0,0,animals,2,dog.jpg,130,(unused),0.018535411265475,6.92392601524261,6.8228014024051,,2.50434012063124,0,,0
2,3,tool,0,0,animals,2,oven.jpg,128,(unused),9.45948784933898,14.6469063629238,5.14059763619564,,2.50362392219904,0,,0
3,3,tool,0,0,animals,2,smartphone.jpg,176,(unused),17.1657448192836,23.5540946794927,6.33210707471746,,2.50021356038178,0,,0
4,3,tool,0,0,animals,2,glove.jpg,150,(unused),26.0729411541952,33.8791329831183,7.75230662263598,,2.5050691484139,0,,0
5,3,animal,0,0,animals,2,duck.jpg,149,(unused),36.3979342343655,43.8205734175717,7.36971759921977,,2.5004226787778,0,,0
6,3,tool,0,0,animals,2,pencil.jpg,161,(unused),46.3393599150668,52.0438704898179,5.65054733439367,,2.50495432573643,0,,0
7,3,animal,0,0,animals,2,otter.jpg,146,(unused),54.5626569873129,59.6666911441725,5.04658879359464,,2.5054171445172,0,,0
8,3,tool,0,0,animals,2,wateringcan.jpg,123,(unused),62.1854898295487,66.3554572205503,4.12859881963092,,2.50086432913213,0,,0
9,3,animal,0,0,animals,2,aardvark.jpg,175,(unused),68.8742652072051,75.0291157757538,6.0953714409257,,2.50550855363144,0,,0
10,3,tool,0,0,animals,2,ruler.jpg,166,(unused),77.547995927499,84.6369209595168,7.04492718100421,,2.50202987552893,0,,0
11,3,tool,0,0,animals,2,caulkinggun.jpg,156,(unused),87.1557395303844,92.776843617783,5.57293684938143,,2.50339010730477,0,,0
12,3,animal,0,0,animals,2,lemur.jpg,127,(unused),95.2956313982131,99.7157569911296,4.38828855929154,,2.50171395279904,0,,0
13,3,animal,0,0,animals,2,prairiedog.jpg,152,(unused),102.234635539206,109.507081207713,7.23166480808126,,2.50173127242124,0,,0
14,3,tool,0,0,animals,2,corkscrew.jpg,151,(unused),112.025918060404,119.548487612316,7.47681467026258,,2.50566892050028,0,,0
15,3,animal,0,0,animals,2,moth.jpg,159,(unused),122.067352368843,129.0562248326,6.95003125033577,,2.50526575819367,0,,0
16,3,tool,0,0,animals,2,wheeldolly.jpg,148,(unused),131.575059760889,138.146942124736,6.52517410523271,,2.50032806232593,0,,0
17,3,tool,0,0,animals,2,carpetblower.jpg,168,(unused),140.665721245355,146.386851280113,5.67448072654933,,2.50324706005813,0,,0
18,3,tool,0,0,animals,2,magnet.jpg,180,(unused),148.905748110012,153.926394061342,4.98463895016469,,2.50195225796597,0,,0
19,3,animal,0,0,animals,2,penguin.jpg,164,(unused),156.445196595523,161.349057620313,4.85716853999188,,2.50254914344805,0,,0
20,3,animal,0,0,animals,2,lobsterspiny.jpg,155,(unused),163.867882926589,171.790813817129,7.87420324868232,,2.50416083047276,0,,0
21,3,animal,0,0,animals,2,crab.jpg,143,(unused),174.30962661479,181.081685638778,6.71918743177873,,2.50260174378127,0,,0
22,3,tool,0,0,animals,2,binoculars.jpg,144,(unused),183.600525698806,187.770481222659,4.13285583267125,,2.50041947144018,0,,0
23,3,animal,0,0,animals,2,chimp.jpg,141,(unused),190.28924334439,194.492544913323,4.15880438881707,,2.50220243027979,0,,0
24,3,animal,0,0,animals,2,gecko.jpg,122,(unused),197.011371823269,204.150396106341,7.10048466398133,,2.50068439750612,0,,0
25,3,animal,0,0,animals,2,angelfish.jpg,132,(unused),206.669206338132,214.341948557051,7.62650705394792,,2.5044812434744,0,,0
26,3,tool,0,0,animals,2,saw.jpg,163,(unused),216.860801767162,224.666947089694,7.7643978640816,,2.50023216293812,0,,0
27,3,tool,0,0,animals,2,tape.jpg,126,(unused),227.185795809533,233.574186082193,6.34266656385569,,2.50037104064631,0,,0
28,3,animal,0,0,animals,2,fly.jpg,147,(unused),236.093040254505,243.865830872145,7.716077096212,,2.50461915898177,0,,0
29,3,tool,0,0,animals,2,electricdrill.jpg,157,(unused),246.384704609216,252.589592206475,6.15897301083411,,2.5041678866146,0,,0
30,3,tool,0,0,animals,2,beadingtool.jpg,154,(unused),255.108391854053,260.812908202011,5.65412638758891,,2.50513714396584,0,,0
31,3,animal,0,0,animals,2,octopus.jpg,170,(unused),263.331750186442,271.00448278335,7.62292198777455,,2.50190446863871,0,,0
32,3,animal,0,0,animals,2,palmcockatoo.jpg,160,(unused),273.523320277508,279.861684747139,6.30214369537233,,2.50401008561676,0,,0
33,3,tool,0,0,animals,2,camera.jpg,133,(unused),282.380483432515,289.185888180849,6.75135934203548,,2.50413805837707,0,,0
34,3,animal,0,0,animals,2,waterbuffalo.jpg,173,(unused),291.704692960167,298.410023971815,6.65663337516544,,2.50030336582859,0,,0
35,3,animal,0,0,animals,2,mink.jpg,134,(unused),300.928852806163,307.400661754057,6.42032283999562,,2.50499153084911,0,,0
36,3,tool,0,0,animals,2,crutches.jpg,121,(unused),309.919453704026,315.340398450904,5.37564632195453,,2.50252091887978,0,,0
37,3,tool,0,0,animals,2,chainsaw.jpg,179,(unused),317.859249095146,325.798880270593,7.89456732882212,,2.50040920796073,0,,0
38,3,tool,0,0,animals,2,lantern.jpg,140,(unused),328.317629562975,333.504947366167,5.12941316599715,,2.50060677994225,0,,0
39,3,animal,0,0,animals,2,earthworm.jpg,137,(unused),336.023906739145,341.02786298978,4.95288052365844,,2.50496458921589,0,,0
40,3,tool,0,0,animals,2,typewriter.jpg,136,(unused),343.546687013122,351.052644802638,7.46117892352933,,2.50451010951201,0,,0
41,3,tool,0,0,animals,2,dremel.jpg,165,(unused),353.571496729815,360.29351070675,6.68595682299766,,2.50041850923935,0,,0
42,3,animal,0,0,animals,2,sparrow.jpg,172,(unused),362.812284054161,369.167166311203,6.30380901619908,,2.50561696163459,0,,0
43,3,tool,0,0,animals,2,faxmachine.jpg,174,(unused),371.686214206692,376.573301498548,4.83839754163903,,2.50373842414228,0,,0
44,3,animal,0,0,animals,2,springhare.jpg,169,(unused),379.092147652517,385.063507412814,5.9203997971206,,2.50382726738735,0,,0
45,3,animal,0,0,animals,2,stickinsect.jpg,162,(unused),387.582346510641,392.386113913253,4.75033723486786,,2.50248275156446,0,,0
46,3,animal,0,0,animals,2,deer.jpg,142,(unused),394.90496327456,402.511033609544,7.5607213617615,,2.50389750807517,0,,0
47,3,tool,0,0,animals,2,measuringdevice.jpg,145,(unused),405.029838709595,409.216401505572,4.13303140266291,,2.50476637576594,0,,0
48,3,animal,0,0,animals,2,highlandcow.jpg,178,(unused),411.735266903565,418.373831735561,6.58301169130603,,2.50265306117853,0,,0
49,3,tool,0,0,animals,2,pruner.jpg,135,(unused),420.892686228607,428.782264338658,7.84433402625062,,2.50458099166735,0,,0
50,3,tool,0,0,animals,2,jumpercables.jpg,167,(unused),431.301094455941,435.404272253725,4.05122382711007,,2.50479427960181,0,,0
51,3,animal,0,0,animals,2,giraffe.jpg,171,(unused),437.923126746772,444.494983451919,6.52009703411077,,2.5043940038986,0,,0
52,3,animal,0,0,animals,2,elephantafrican.jpg,153,(unused),447.013754554195,452.534786187842,5.48345494738992,,2.50388339579149,0,,0
53,3,animal,0,0,animals,2,beetle.jpg,125,(unused),455.053683338476,459.390389935424,4.28973381709865,,2.50151606008421,0,,0
54,3,tool,0,0,animals,2,telephone.jpg,138,(unused),461.909205298954,467.413529591552,5.45579741565535,,2.5046550811594,0,,0
55,3,tool,0,0,animals,2,ladder.jpg,158,(unused),469.932351049024,476.32074452902,6.3449823674165,,2.50374066927816,0,,0
56,3,animal,0,0,animals,2,shrimp.jpg,177,(unused),478.839590362256,485.528209542582,6.64617221874684,,2.50359890496748,0,,0
57,3,animal,0,0,animals,2,brown_bear.jpg,129,(unused),488.047063394161,494.418767173463,6.3341288924919,,2.50534433795838,0,,0
58,3,animal,0,0,animals,2,bluejay.jpg,139,(unused),496.937576443053,502.091633837073,5.1134056188101,,2.50474616954125,0,,0
59,3,tool,0,0,animals,2,hairbrush.jpg,131,(unused),504.610424183372,512.533441030552,7.88135779935723,,2.50430163258352,0,,0
60,3,tool,0,0,animals,2,drill.jpg,124,(unused),515.052221434106,520.072925117509,4.98244953302822,,2.50107633413154,0,,0
