trial,phase,object,toShock,seenBefore,shockedCategory,responseSide,filename,num,name,onsetFixationCross,onsetStimulus,interTrialTime,response,reactionTime,wasShocked,buttonPressed,isResponseCorrect
1,1,animal,0,0,animals,2,panda.jpg,18,(unused),0.0161325718054286,5.95387552909142,5.71140839665353,animal,1.29575722854315,0,2,1
2,1,tool,0,0,animals,2,compass.jpg,32,(unused),8.53920565592307,15.49431420571,6.89754529861902,tool,0.879801846726878,0,1,1
3,1,animal,0,0,animals,2,yak.jpg,53,(unused),18.046347798283,23.9840089679683,5.88397855136713,animal,0.641335181428076,0,2,1
4,1,animal,0,0,animals,2,caterpillarpeacockmoth.jpg,1,(unused),26.5359938087158,31.9399594489432,5.3523356549669,animal,0.676717459883548,0,2,1
5,1,tool,0,0,animals,2,pressuregauge.jpg,38,(unused),34.4919487799907,40.4296112326183,5.89453093931255,tool,0.887427017037226,0,1,1
6,1,animal,0,0,animals,2,rhino.jpg,35,(unused),42.9816169211863,49.7532030746415,6.70874821127017,animal,0.823238183258582,0,2,1
7,1,tool,0,0,animals,2,floorbuffer.jpg,56,(unused),52.3052434026649,59.994203231161,7.62579050576532,tool,0.718619011987357,0,1,1
8,1,animal,0,0,animals,2,emu.jpg,26,(unused),62.5628663278258,70.5187087208733,7.90046071345366,animal,0.540627381906234,0,2,1
9,1,animal,0,0,animals,2,cockatiel.jpg,20,(unused),73.0707137679701,78.1076907442794,4.9937057831727,animal,0.588853200359154,0,2,1
10,1,tool,0,0,animals,2,sawblade.jpg,34,(unused),80.6596832826835,86.9142335599281,6.20364804462129,tool,0.874717544557825,0,1,1
11,1,animal,0,0,animals,2,mahimahi.jpg,39,(unused),89.46626651103,94.6700468943218,5.15614175206351,animal,0.570175798883611,0,2,1
12,1,tool,0,0,animals,2,spoon.jpg,44,(unused),97.2220378290485,103.459928453046,6.17725239246463,tool,0.737658524059043,0,1,1
13,1,tool,0,0,animals,2,nailgun.jpg,25,(unused),106.01191361453,113.450605628725,7.39685703774601,tool,0.761364740429599,0,1,1
14,1,tool,0,0,animals,2,italiangardeningtool.jpg,2,(unused),116.002703689172,121.823610652728,5.76351202346122,tool,0.646714560432883,0,1,1
15,1,animal,0,0,animals,2,flounder.jpg,29,(unused),124.37561313394,128.711911882558,4.27859421232464,animal,0.631690338473163,0,2,1
16,1,tool,0,0,animals,2,clamp.jpg,31,(unused),131.280711933362,138.852921404558,7.52099304991234,tool,0.61899048806481,0,1,1
17,1,animal,0,0,animals,2,quail.jpg,47,(unused),141.404994768357,147.025736039856,5.55547065098201,animal,0.585618260182855,0,2,1
18,1,animal,0,0,animals,2,racoon.jpg,23,(unused),149.594367062952,155.415322136862,5.7687840908778,animal,0.572372196892502,0,2,1
19,1,tool,0,0,animals,2,hourglass.jpg,10,(unused),157.967321410717,164.688899417485,6.66564455672665,tool,0.630168447621145,0,1,1
20,1,tool,0,0,animals,2,television.jpg,54,(unused),167.257583041234,175.13000368481,7.81251395921417,tool,0.628484905980258,0,1,1
21,1,tool,0,0,animals,2,anvil.jpg,6,(unused),177.698682497523,185.737895963804,7.99284137558603,tool,0.644034493001527,0,1,1
22,1,animal,0,0,animals,2,cat.jpg,8,(unused),188.289969648338,192.492947871668,4.14284831354204,animal,0.554247102276349,0,2,1
23,1,tool,0,0,animals,2,blender.jpg,24,(unused),195.044961899363,199.614974010344,4.52969677905131,tool,0.811707414441116,0,1,1
24,1,animal,0,0,animals,2,squirel.jpg,46,(unused),202.166926136051,206.470033230981,4.25489220936302,animal,0.592742762080889,0,2,1
25,1,tool,0,0,animals,2,woodchipper.jpg,13,(unused),209.022028976743,214.526147223011,5.43503651056578,tool,0.541946247066335,0,1,1
26,1,animal,0,0,animals,2,tragopan.jpg,55,(unused),217.07808812297,221.48122369923,4.34909224740475,animal,0.545131152474823,0,2,1
27,1,animal,0,0,animals,2,salamander.jpg,9,(unused),224.049912775486,228.803377362417,4.70217742421216,animal,0.744302243155289,0,2,1
28,1,tool,0,0,animals,2,vegetablepeeler.jpg,3,(unused),231.355368297142,235.641806758227,4.24292584627408,tool,0.62508093809538,0,1,1
29,1,tool,0,0,animals,2,monkeywrench.jpg,16,(unused),238.193775241455,246.183051443637,7.92740573886233,tool,0.614328274064064,0,1,1
30,1,tool,0,0,animals,2,electricbreaker.jpg,41,(unused),248.751656166406,253.671893690429,4.86176335388332,tool,0.562744994401328,0,1,1
31,1,animal,0,0,animals,2,frog.jpg,5,(unused),256.223886870305,263.896224571631,7.61207322368672,animal,0.59386084669859,0,2,1
32,1,animal,0,0,animals,2,phasmagigas.jpg,36,(unused),266.448129869928,270.984854747984,4.48812051058204,animal,0.780553073861483,0,2,1
33,1,tool,0,0,animals,2,plunger.jpg,30,(unused),273.553432208219,279.074175789016,5.46652850717106,tool,1.31953304455874,0,1,1
34,1,tool,0,0,animals,2,abacus.jpg,12,(unused),281.642815471974,288.814752253686,7.10644929136891,tool,0.642487264030024,0,1,1
35,1,animal,0,0,animals,2,beta.jpg,17,(unused),291.383424010215,297.437849008098,6.00318044669671,animal,0.454613767317824,0,2,1
36,1,tool,0,0,animals,2,bucket.jpg,22,(unused),299.989845716067,305.427185187854,5.38836287751307,tool,0.601612066135203,0,1,1
37,1,tool,0,0,animals,2,spraybottle.jpg,49,(unused),307.995821663456,315.467933053678,7.40787423326035,tool,0.62224563458949,0,1,1
38,1,tool,0,0,animals,2,viceclamp.jpg,4,(unused),318.019957344917,322.48979792645,4.42192681433863,tool,0.990700060613563,0,1,1
39,1,animal,0,0,animals,2,chinchilla.jpg,19,(unused),325.041845631393,330.379072268363,5.28642856393403,animal,0.613839472872314,0,2,1
40,1,tool,0,0,animals,2,edger.jpg,40,(unused),332.931064165297,338.168171552738,5.18313136838719,tool,0.561952777245097,0,1,1
41,1,animal,0,0,animals,2,firebug.jpg,15,(unused),340.72019039147,347.408388151965,6.63744260342809,animal,0.515102914905583,0,2,1
42,1,animal,0,0,animals,2,partridge.jpg,33,(unused),349.960432970287,355.964628834593,5.94871158815639,animal,0.519208331746086,0,2,1
43,1,animal,0,0,animals,2,leopard.jpg,50,(unused),358.516823436483,365.105085408263,6.52063656118763,animal,0.408200746988769,0,2,1
44,1,tool,0,0,animals,2,scale.jpg,43,(unused),367.673631757137,374.595328628552,6.84847429085103,tool,0.604276738254157,0,1,1
45,1,animal,0,0,animals,2,ferret.jpg,21,(unused),377.147355806412,382.284420600154,5.07318438260347,animal,0.622500940198734,0,2,1
46,1,animal,0,0,animals,2,heckcattle.jpg,37,(unused),384.836416666651,392.058231697095,7.17949801699179,animal,0.477175919480032,0,2,1
47,1,tool,0,0,animals,2,shovel.jpg,52,(unused),394.627039766292,400.314524210611,5.6398329023354,tool,0.721138711573076,0,1,1
48,1,tool,0,0,animals,2,flashlight.jpg,51,(unused),402.866535993157,409.871646274917,6.95097951570494,tool,0.641404139601946,0,1,1
49,1,animal,0,0,animals,2,rat.jpg,48,(unused),412.423679226019,418.878286465922,6.40289737866193,animal,0.60915416590251,0,2,1
50,1,animal,0,0,animals,2,herculesbeetle.jpg,28,(unused),421.430373300619,427.217908998502,5.73743951813359,animal,0.574842823918516,0,2,1
51,1,animal,0,0,animals,2,armadillo.jpg,57,(unused),429.769896405136,435.640861550147,5.81570304486411,animal,0.566217599724041,0,2,1
52,1,tool,0,0,animals,2,washboard.jpg,59,(unused),438.192865955773,445.898429629505,7.65098357211662,tool,0.672082508416679,0,1,1
53,1,animal,0,0,animals,2,porcupine.jpg,60,(unused),448.450507483603,453.404091897388,4.89362262581126,animal,0.522762083199268,0,2,1
54,1,animal,0,0,animals,2,hippo.jpg,45,(unused),455.95609662375,463.795172622713,7.78725907970792,animal,0.469052967377138,0,2,1
55,1,tool,0,0,animals,2,kettle.jpg,58,(unused),466.363859453818,473.118790765063,6.69128712810519,tool,0.887770204226399,0,1,1
56,1,animal,0,0,animals,2,mountainsheep.jpg,7,(unused),475.670767266683,483.476497658828,7.75292762322736,animal,0.51263357082189,0,2,1
57,1,animal,0,0,animals,2,seahorse.jpg,42,(unused),486.02850302666,491.966179591657,5.89082568170167,animal,0.544189472487233,0,2,1
58,1,tool,0,0,animals,2,loom.jpg,14,(unused),494.518109907339,499.838530635589,5.26817405966138,tool,0.647375917426871,0,1,1
59,1,tool,0,0,animals,2,blower.jpg,27,(unused),502.39073774617,506.743813537297,4.28751025484713,tool,0.558257581352336,0,1,1
60,1,tool,0,0,animals,2,workbench.jpg,11,(unused),509.295864449598,515.133293791525,5.78515823673731,tool,0.707018322790645,0,1,1
