trial,phase,object,toShock,seenBefore,shockedCategory,responseSide,filename,num,name,onsetFixationCross,onsetStimulus,interTrialTime,response,reactionTime,wasShocked,buttonPressed,isResponseCorrect
1,2,tool,0,0,animals,1,nailgun.jpg,25,(unused),0.0314385000747279,10.0385922118639,9.88299693777198,0,2.41925111594537,0,2,1
2,2,animal,0,0,animals,1,porcupine.jpg,60,(unused),14.4255030104923,23.515543108997,9.03319648967597,1,1.78386141120973,0,1,0
3,2,tool,0,0,animals,1,electricbreaker.jpg,41,(unused),27.8689263361339,36.0249102248872,8.10939857032577,1,0.944975483789676,0,1,0
4,2,animal,0,0,animals,1,firebug.jpg,15,(unused),40.3782847921339,48.8845471765799,8.45819838363691,1,2.12901645854618,0,1,0
5,2,animal,1,0,animals,1,tragopan.jpg,55,(unused),53.2379114802516,63.1950915245252,9.90314920686733,0,1.76604993896945,1,2,0
6,2,tool,0,0,animals,1,abacus.jpg,12,(unused),67.7487767573584,76.2216706557265,8.42427038766805,0,1.38608116589785,0,2,1
7,2,tool,0,0,animals,1,workbench.jpg,11,(unused),80.5750317520306,87.7636676010297,7.14113350872859,0,1.0575296963143,0,2,1
8,2,animal,1,0,animals,1,chinchilla.jpg,19,(unused),92.1170129812344,98.7718842343093,6.59751781566861,1,1.40680588975738,1,1,1
9,2,animal,0,0,animals,1,emu.jpg,26,(unused),103.325405570677,111.281234351152,7.91196672445831,0,1.81102332103001,0,2,1
10,2,animal,1,0,animals,1,beta.jpg,17,(unused),115.634622389342,121.989102215322,6.31503143514405,0,2.7836583848657,1,2,0
11,2,tool,0,0,animals,1,bucket.jpg,22,(unused),126.54280540941,136.099832077387,9.50701770863514,1,1.53650251772342,0,1,0
12,2,tool,0,0,animals,1,loom.jpg,14,(unused),140.453191249269,147.825276634516,7.32347843290497,1,0.802534703014317,0,1,0
13,2,tool,0,0,animals,1,kettle.jpg,58,(unused),152.178649918815,161.418776520013,9.18287259221167,1,1.06563727910543,0,1,0
14,2,animal,1,0,animals,1,panda.jpg,18,(unused),165.772144031051,173.627900389176,7.80427882540231,1,0.640041462538647,1,1,1
15,2,animal,0,0,animals,1,yak.jpg,53,(unused),178.181437441644,186.704186655677,8.46785387359025,0,2.59141392703714,0,2,1
16,2,animal,0,0,animals,1,caterpillarpeacockmoth.jpg,1,(unused),191.057749816115,200.297867436684,9.18315329465005,0,0.669235880952328,0,2,1
17,2,tool,0,0,animals,1,scale.jpg,43,(unused),204.651264134765,210.939172809474,6.23176569010498,0,0.839416539114609,0,2,1
18,2,tool,0,0,animals,1,hourglass.jpg,10,(unused),215.292564375766,221.647051899428,6.3085038393036,0,0.591996384919184,0,2,1
19,2,tool,0,0,animals,1,viceclamp.jpg,4,(unused),226.000552836942,233.155835915963,7.1012151980505,1,0.462701319323969,0,1,0
20,2,animal,0,0,animals,1,herculesbeetle.jpg,28,(unused),237.50917231554,245.014581861049,7.46295215470649,1,0.51949449096719,0,1,0
21,2,tool,0,0,animals,1,plunger.jpg,30,(unused),249.368060026256,256.756832060066,7.3470340076401,1,0.457748502903996,0,1,0
22,2,tool,0,0,animals,1,spraybottle.jpg,49,(unused),261.11017455364,268.865723459254,7.70095104690053,1,0.544385584815245,0,1,0
23,2,tool,0,0,animals,1,compass.jpg,32,(unused),273.219258074123,281.225150649132,7.95777462515292,0,0.853478278368129,0,2,1
24,2,animal,1,0,animals,1,squirel.jpg,46,(unused),285.578506292912,294.75176249548,9.1275570482172,0,0.589481809036442,1,2,0
25,2,tool,0,0,animals,1,television.jpg,54,(unused),299.30541950348,307.928445769894,8.57132125284883,0,2.91347208173465,0,2,1
26,2,tool,0,0,animals,1,spoon.jpg,44,(unused),312.298495439181,320.08756967113,7.73620317072448,0,1.23182123701008,0,2,1
27,2,animal,0,0,animals,1,hippo.jpg,45,(unused),324.457583738642,333.947911922867,9.43386409347492,1,4.02622899986636,0,1,0
28,2,animal,1,0,animals,1,rat.jpg,48,(unused),338.301285207168,345.439870411839,7.08842713509704,0,3.1658444108798,1,2,0
29,2,tool,0,0,animals,1,woodchipper.jpg,13,(unused),349.99340618136,359.233544970553,9.18741396361981,1,1.74959935262996,0,1,0
30,2,animal,1,0,animals,1,leopard.jpg,50,(unused),363.603559358802,369.724611811444,6.07618040032868,0,2.23400352964927,1,2,0
31,2,animal,1,0,animals,1,mahimahi.jpg,39,(unused),374.294888113298,380.799487798591,6.44998933453119,1,1.71158852327608,1,1,1
32,2,animal,1,0,animals,1,phasmagigas.jpg,36,(unused),385.35317623879,394.860118585082,9.46310760292028,1,0.904609484705361,1,1,1
33,2,tool,0,0,animals,1,shovel.jpg,52,(unused),399.413768612545,408.520430174391,9.06472340348395,1,0.908818191936007,0,1,0
34,2,tool,0,0,animals,1,washboard.jpg,59,(unused),412.873786138907,422.447491757766,9.51724401788254,0,1.24039613320383,0,2,1
35,2,animal,1,0,animals,1,cat.jpg,8,(unused),426.800893266896,435.557331575434,8.71525985267601,1,1.38214091529881,1,1,1
36,2,animal,1,0,animals,1,mountainsheep.jpg,7,(unused),440.127537956683,446.632285180867,6.45023005372384,1,1.9916965602315,1,1,1
37,2,tool,0,0,animals,1,anvil.jpg,6,(unused),451.18583538354,460.10887909803,8.87161864802842,0,0.7236373188789,0,2,1
38,2,tool,0,0,animals,1,monkeywrench.jpg,16,(unused),464.462408260375,470.883756560566,6.37796741202657,0,0.568224020749767,0,2,1
39,2,tool,0,0,animals,1,blender.jpg,24,(unused),475.220453780614,483.326396967877,8.05715353052952,0,0.645116479650824,0,2,1
40,2,animal,1,0,animals,1,heckcattle.jpg,37,(unused),487.679773780281,495.185290131118,7.45507417779606,1,0.499748334836113,1,1,1
41,2,animal,1,0,animals,1,cockatiel.jpg,20,(unused),499.738853804733,506.743954801519,6.96116208360594,1,1.29262361764631,1,1,1
42,2,animal,1,0,animals,1,ferret.jpg,21,(unused),511.297437328743,521.171429493788,9.82221881507464,1,0.407735384769694,1,1,1
43,2,tool,0,0,animals,1,blower.jpg,27,(unused),525.724982903828,532.079471710438,6.31365050266692,1,0.600189925151426,0,1,0
44,2,tool,0,0,animals,1,flashlight.jpg,51,(unused),536.449638448628,545.973292140212,9.48173080024599,0,0.56496276978578,0,2,1
45,2,animal,1,0,animals,1,rhino.jpg,35,(unused),550.326672159983,559.800166477489,9.42598158332804,0,0.705708136263638,1,2,0
46,2,tool,0,0,animals,1,italiangardeningtool.jpg,2,(unused),564.353867747159,573.677352538785,9.27955782636748,0,1.25316241684595,0,2,1
47,2,tool,0,0,animals,1,vegetablepeeler.jpg,3,(unused),578.030730313398,587.354322551826,9.27901376611624,1,1.88981935236188,0,1,0
48,2,animal,0,0,animals,1,partridge.jpg,33,(unused),591.707655423299,597.962270985059,6.21159736834386,1,1.37031182435021,0,1,0
49,2,animal,0,0,animals,1,racoon.jpg,23,(unused),602.315618610421,611.78922614799,9.43080444059241,1,2.10915676161676,0,1,0
50,2,animal,1,0,animals,1,seahorse.jpg,42,(unused),616.142610016601,625.032547928387,8.85014264343239,1,1.14120990640731,1,1,1
51,2,tool,0,0,animals,1,floorbuffer.jpg,56,(unused),629.585957648378,637.692003792128,8.06460841315652,1,0.953305016391823,0,1,0
52,2,animal,1,0,animals,1,flounder.jpg,29,(unused),642.028642638092,650.618339227569,8.53947781193706,1,1.16253793603937,1,1,1
53,2,animal,1,0,animals,1,armadillo.jpg,57,(unused),655.171847092995,664.929042019454,9.70850813876163,1,1.22847146271306,1,1,1
54,2,animal,0,0,animals,1,salamander.jpg,9,(unused),669.49911978528,678.055514601918,8.50553102748136,1,1.2706826601443,0,1,0
55,2,tool,0,0,animals,1,pressuregauge.jpg,38,(unused),682.408884999586,691.965915195666,9.50158305434722,1,1.54180044685563,0,1,0
56,2,tool,0,0,animals,1,edger.jpg,40,(unused),696.319290404384,702.840692524198,6.47395063146452,1,1.00146427628533,0,1,0
57,2,tool,0,0,animals,1,sawblade.jpg,34,(unused),707.194032131141,715.667035079994,8.42283786991235,1,1.27773437765791,0,1,0
58,2,animal,1,0,animals,1,quail.jpg,47,(unused),720.020379177253,727.742531371958,7.67117964872041,1,1.1458131198051,1,1,1
59,2,animal,1,0,animals,1,frog.jpg,5,(unused),732.312929553766,738.550785018253,6.18158290140079,1,0.939946011292705,1,1,1
60,2,tool,0,0,animals,1,clamp.jpg,31,(unused),743.104315976723,751.994175949487,8.83782991015486,1,0.650118368790572,0,1,0
