trial,phase,object,toShock,seenBefore,shockedCategory,responseSide,filename,num,name,onsetFixationCross,onsetStimulus,interTrialTime,response,reactionTime,wasShocked,buttonPressed,isResponseCorrect
1,3,animal,0,0,animals,1,sparrow.jpg,172,(unused),0.0183675742155174,6.40688330255398,6.3150529234689,animal,0.723146346443173,0,1,1
2,3,animal,0,0,animals,1,chimp.jpg,141,(unused),8.97586437004611,16.5486282185393,7.52998883639579,animal,0.661848551708317,0,1,1
3,3,tool,0,0,animals,1,pruner.jpg,135,(unused),19.1008481727895,23.7712571005886,4.6122871224127,tool,0.524576965095548,0,2,1
4,3,tool,0,0,animals,1,carpetblower.jpg,168,(unused),26.323436000408,33.3791709196394,7.01646212251483,tool,0.787175223103986,0,2,1
5,3,animal,0,0,animals,1,earthworm.jpg,137,(unused),35.931340197325,41.3857357798679,5.40442333536311,animal,0.45386872482959,0,1,1
6,3,tool,0,0,animals,1,electricdrill.jpg,157,(unused),43.9379230188679,51.4605128992062,7.4722869599071,tool,0.573681914336703,0,2,1
7,3,tool,0,0,animals,1,dremel.jpg,165,(unused),54.0128855246239,59.5673551334403,5.50925206628252,tool,0.534207757458717,0,2,1
8,3,tool,0,0,animals,1,hairbrush.jpg,131,(unused),62.1362370929673,68.6414737781815,6.45539762081451,tool,0.690543033608265,0,2,1
9,3,animal,0,0,animals,1,palmcockatoo.jpg,160,(unused),71.1936934116948,77.8323441706234,6.58369451843977,animal,0.418004792047213,0,1,1
10,3,animal,0,0,animals,1,fly.jpg,147,(unused),80.3845660493007,84.6713296514681,4.23650444397787,animal,0.400346575323056,0,1,1
11,3,tool,0,0,animals,1,caulkinggun.jpg,156,(unused),87.2402128939466,93.3784903141368,6.09642081756234,tool,0.694683757938037,0,2,1
12,3,animal,0,0,animals,1,springhare.jpg,169,(unused),95.9473588026794,100.300826875804,4.29796372696214,animal,0.602669229798266,0,1,1
13,3,tool,0,0,animals,1,glove.jpg,150,(unused),102.853056452186,109.308248105819,6.41142223366044,tool,0.652669999570207,0,2,1
14,3,animal,0,0,animals,1,octopus.jpg,170,(unused),111.860439835147,117.881947546324,5.96208227986031,animal,0.748548455359924,0,1,1
15,3,tool,0,0,animals,1,binoculars.jpg,144,(unused),120.434184820413,125.788419136017,5.30660458033617,tool,0.606268228069894,0,2,1
16,3,animal,0,0,animals,1,giraffe.jpg,171,(unused),128.340688804617,132.493798741971,4.09905275697514,animal,0.55120589589751,0,1,1
17,3,animal,0,0,animals,1,beetle.jpg,125,(unused),135.062860635375,140.950927651604,5.83120193695902,animal,0.512471681005991,0,1,1
18,3,tool,0,0,animals,1,measuringdevice.jpg,145,(unused),143.519802234163,151.342827483923,7.77874396876499,tool,0.719251948705278,0,2,1
19,3,animal,0,0,animals,1,lobsterspiny.jpg,155,(unused),153.894997403084,158.048159299951,4.10052713083808,animal,0.53705622940106,0,1,1
20,3,animal,0,0,animals,1,prairiedog.jpg,152,(unused),160.600545075618,166.238357105336,5.5933946146032,animal,0.86717716036037,0,1,1
21,3,tool,0,0,animals,1,corkscrew.jpg,151,(unused),168.790581870651,173.644316156106,4.81620907677573,tool,0.889734646189027,0,2,1
22,3,tool,0,0,animals,1,crutches.jpg,121,(unused),176.196685894884,183.569128171712,7.32726361395655,tool,0.5822776859859,0,2,1
23,3,tool,0,0,animals,1,typewriter.jpg,136,(unused),186.138211233809,190.708476214506,4.52061615227665,tool,0.54719956068584,0,2,1
24,3,animal,0,0,animals,1,deer.jpg,142,(unused),193.260735940237,199.265444049641,5.95827476286938,animal,0.579629033663878,0,1,1
25,3,tool,0,0,animals,1,smartphone.jpg,176,(unused),201.834436663692,205.954381034937,4.06934839759824,tool,0.878105336916633,0,2,1
26,3,animal,0,0,animals,1,penguin.jpg,164,(unused),208.523285446108,213.493919018627,4.93034113199167,animal,0.555831254961959,0,1,1
27,3,tool,0,0,animals,1,beadingtool.jpg,154,(unused),216.046127747055,221.533872036962,5.44885577594752,tool,0.640205168463581,0,2,1
28,3,animal,0,0,animals,1,stickinsect.jpg,162,(unused),224.086079161701,230.858175747384,6.7219217400012,animal,1.14948924332202,0,1,1
29,3,tool,0,0,animals,1,tape.jpg,126,(unused),233.427066046093,237.763865378445,4.28510409369428,tool,0.946066137630623,0,2,1
30,3,tool,0,0,animals,1,jumpercables.jpg,167,(unused),240.332775242157,247.772103206769,7.38391447440088,tool,1.12436681772306,0,2,1
31,3,animal,0,0,animals,1,elephantafrican.jpg,153,(unused),250.341000561708,255.528479473202,5.12434041441799,animal,0.701264975790764,0,1,1
32,3,animal,0,0,animals,1,moth.jpg,159,(unused),258.097357583876,262.751074036312,4.60000286176659,animal,1.0960957096504,0,1,1
33,3,tool,0,0,animals,1,ruler.jpg,166,(unused),265.319989994041,271.658393656609,6.28017875500486,tool,1.19713130769378,0,2,1
34,3,tool,0,0,animals,1,chainsaw.jpg,179,(unused),274.210558443967,278.947701029858,4.68474379441724,tool,1.04124217775097,0,2,1
35,3,animal,0,0,animals,1,waterbuffalo.jpg,173,(unused),281.49990911681,287.654962083443,6.09475037940536,animal,0.757370988596449,0,1,1
36,3,tool,0,0,animals,1,magnet.jpg,180,(unused),290.207122059734,294.760631058993,4.50211305619709,tool,0.820086123441797,0,2,1
37,3,tool,0,0,animals,1,telephone.jpg,138,(unused),297.312965516619,303.734816802073,6.38203887447055,tool,0.569169134219919,0,2,1
38,3,tool,0,0,animals,1,camera.jpg,133,(unused),306.287005965498,311.024123854582,4.6773109837965,tool,0.719293323874808,0,2,1
39,3,animal,0,0,animals,1,mink.jpg,134,(unused),313.593012228865,320.798824830779,7.15817470186802,animal,0.489029279731767,0,1,1
40,3,tool,0,0,animals,1,lantern.jpg,140,(unused),323.351021371174,329.355803250261,5.9521603016654,tool,0.899480262665747,0,2,1
41,3,animal,0,0,animals,1,crab.jpg,143,(unused),331.92474614996,336.544931395254,4.58290269262378,animal,0.607613081450836,0,1,1
42,3,animal,0,0,animals,1,shrimp.jpg,177,(unused),339.09732422715,346.786847200312,7.64176970221193,animal,0.790257833603391,0,1,1
43,3,animal,0,0,animals,1,highlandcow.jpg,178,(unused),349.339060739807,354.643303266297,5.24187337532444,animal,0.744088917708723,0,1,1
44,3,tool,0,0,animals,1,ladder.jpg,158,(unused),357.195497561528,362.149505372134,4.90647946194489,tool,0.666251318776631,0,2,1
45,3,tool,0,0,animals,1,wheeldolly.jpg,148,(unused),364.718402406335,370.756546784509,5.97535491451042,tool,0.627610759307572,0,2,1
46,3,animal,0,0,animals,1,otter.jpg,146,(unused),373.325459214122,378.946633293894,5.57768417188587,animal,0.682923266926082,0,1,1
47,3,tool,0,0,animals,1,faxmachine.jpg,174,(unused),381.515527762194,389.421915960071,7.86194525373498,tool,0.720193634735551,0,2,1
48,3,animal,0,0,animals,1,duck.jpg,149,(unused),391.974099670955,399.012958652831,6.98340035190239,animal,0.609595882207941,0,1,1
49,3,animal,0,0,animals,1,dog.jpg,130,(unused),401.565346994399,408.50429328109,6.89032676098715,animal,0.883681041928867,0,1,1
50,3,tool,0,0,animals,1,wateringcan.jpg,123,(unused),411.073154071926,415.826968285228,4.70390529845076,tool,0.805382863591149,0,2,1
51,3,animal,0,0,animals,1,brown_bear.jpg,129,(unused),418.379183428411,422.949429485581,4.52090497732933,animal,0.88018275531067,0,1,1
52,3,tool,0,0,animals,1,pencil.jpg,161,(unused),425.518400610204,433.541533820289,7.96122659196838,tool,0.532644160935888,0,2,1
53,3,tool,0,0,animals,1,saw.jpg,163,(unused),436.110421873835,440.830843759439,4.66255739174494,tool,0.885610279483444,0,2,1
54,3,tool,0,0,animals,1,oven.jpg,128,(unused),443.383070128442,450.338680986313,6.90018410152758,tool,0.935315329052173,0,2,1
55,3,animal,0,0,animals,1,aardvark.jpg,175,(unused),452.907575454614,458.82881669687,5.86320547477991,animal,1.02456958812763,0,1,1
56,3,animal,0,0,animals,1,gecko.jpg,122,(unused),461.397879873226,465.484421332429,4.0408927044237,animal,0.715261650380853,0,1,1
57,3,animal,0,0,animals,1,lemur.jpg,127,(unused),468.053380910491,473.290875024953,5.17590265315251,animal,0.562108092693961,0,1,1
58,3,tool,0,0,animals,1,drill.jpg,124,(unused),475.843060018789,482.948802764022,7.06415938358528,tool,0.447627809726328,0,2,1
59,3,animal,0,0,animals,1,bluejay.jpg,139,(unused),485.501040038111,491.856123346533,6.31629608095895,animal,0.668802146088638,0,1,1
60,3,animal,0,0,animals,1,angelfish.jpg,132,(unused),494.408316038074,500.780031523165,6.32801413728285,animal,1.06733162766068,0,1,1
