trial,phase,object,toShock,seenBefore,shockedCategory,responseSide,filename,num,name,onsetFixationCross,onsetStimulus,interTrialTime,response,reactionTime,wasShocked,buttonPressed,isResponseCorrect
1,1,tool,0,0,animals,1,carpetblower.jpg,168,(unused),0.0254611688292243,4.81221651677652,4.62281440277017,tool,2.11432474651156,0,2,1
2,1,tool,0,0,animals,1,tape.jpg,126,(unused),7.39778944052614,12.0011247068264,4.55433059520933,tool,1.71065001355646,0,2,1
3,1,animal,0,0,animals,1,aardvark.jpg,175,(unused),14.5531297539233,19.6069447125228,4.99495546378021,animal,0.532128207377809,0,1,1
4,1,tool,0,0,animals,1,chainsaw.jpg,179,(unused),22.1755045322948,27.429294345216,5.20653548891592,tool,0.894210577435388,0,2,1
5,1,animal,0,0,animals,1,beetle.jpg,125,(unused),29.9813013167272,36.4694199838009,6.44169531982847,animal,0.749351264938468,0,1,1
6,1,animal,0,0,animals,1,palmcockatoo.jpg,160,(unused),39.0380817975229,46.8104245664722,7.72816468603122,animal,1.21478622102359,0,1,1
7,1,tool,0,0,animals,1,faxmachine.jpg,174,(unused),49.3624334623973,54.0658126053404,4.65645750517316,tool,1.18964182581567,0,2,1
8,1,animal,0,0,animals,1,otter.jpg,146,(unused),56.6178157280233,64.4235480445814,7.75957123196563,animal,1.04037400125071,0,1,1
9,1,animal,0,0,animals,1,angelfish.jpg,132,(unused),66.9755675247843,71.5287211263899,4.5090250610738,animal,0.72547281350171,0,1,1
10,1,tool,0,0,animals,1,ruler.jpg,166,(unused),74.0808727496974,80.6189402273549,6.48541126757129,tool,1.14063373301269,0,2,1
11,1,tool,0,0,animals,1,corkscrew.jpg,151,(unused),83.1709779894918,89.3086807265222,6.09998601970699,tool,1.1052431154294,0,2,1
12,1,tool,0,0,animals,1,smartphone.jpg,176,(unused),91.8607928993397,97.6649920992963,5.7491972646503,tool,1.28127665411967,0,2,1
13,1,animal,0,0,animals,1,dog.jpg,130,(unused),100.233685024381,106.538264937602,6.2548755275418,animal,0.831429131867026,0,1,1
14,1,animal,0,0,animals,1,gecko.jpg,122,(unused),109.106941825901,113.910424502325,4.7563870055393,animal,0.776492881292597,0,1,1
15,1,tool,0,0,animals,1,magnet.jpg,180,(unused),116.462448472828,122.583559231843,6.06295773590382,tool,1.03372098081809,0,2,1
16,1,animal,0,0,animals,1,giraffe.jpg,171,(unused),125.152260496054,130.556168083121,5.34434715958114,animal,0.857478643194099,0,1,1
17,1,animal,0,0,animals,1,sparrow.jpg,172,(unused),133.108172488747,140.813820515966,7.65285711566952,animal,0.71121386690038,0,1,1
18,1,tool,0,0,animals,1,beadingtool.jpg,154,(unused),143.365841279111,148.436141410741,5.01792951880804,tool,1.00923152789073,0,2,1
19,1,animal,0,0,animals,1,crab.jpg,143,(unused),150.988173720372,157.659690017594,6.62281942230005,animal,0.846088356609926,0,1,1
20,1,tool,0,0,animals,1,wateringcan.jpg,123,(unused),160.211723289431,167.917335394253,7.64738952671109,tool,1.1057806684471,0,2,1
21,1,animal,0,0,animals,1,elephantafrican.jpg,153,(unused),170.46934044135,178.47524935498,7.96162717625356,animal,0.78929857447929,0,1,1
22,1,tool,0,0,animals,1,measuringdevice.jpg,145,(unused),181.027254402076,187.598700522329,6.53156564308282,tool,0.798252552756821,0,2,1
23,1,tool,0,0,animals,1,ladder.jpg,158,(unused),190.150709418254,195.35457062694,5.15805776851746,tool,0.764656130627372,0,2,1
24,1,tool,0,0,animals,1,pruner.jpg,135,(unused),197.923162841017,205.545413173941,7.56983802321604,tool,0.634219981405749,0,2,1
25,1,animal,0,0,animals,1,prairiedog.jpg,152,(unused),208.097420145451,213.784861290452,5.63153371262494,animal,0.787122703553905,0,1,1
26,1,tool,0,0,animals,1,binoculars.jpg,144,(unused),216.336881732862,223.692280612597,7.31122673661828,tool,0.706087869091789,0,2,1
27,1,tool,0,0,animals,1,electricdrill.jpg,157,(unused),226.244278924244,231.998452016316,5.70151896054244,tool,0.805265759369377,0,2,1
28,1,animal,0,0,animals,1,highlandcow.jpg,178,(unused),234.550484967418,239.8209273774,5.21311201281939,animal,0.68707048778333,0,1,1
29,1,animal,0,0,animals,1,lemur.jpg,127,(unused),242.372952951581,247.293168986313,4.86148666285722,animal,0.570160724845209,0,1,1
30,1,tool,0,0,animals,1,wheeldolly.jpg,148,(unused),249.845191353137,257.283945910791,7.3844894006606,tool,0.576782313179592,0,2,1
31,1,tool,0,0,animals,1,typewriter.jpg,136,(unused),259.835924657561,264.839521708333,4.95199437364967,tool,0.515525003613675,0,2,1
32,1,animal,0,0,animals,1,stickinsect.jpg,162,(unused),267.408286798947,274.86372314061,7.40407947649095,animal,0.699774187020466,0,1,1
33,1,animal,0,0,animals,1,octopus.jpg,170,(unused),277.432456799127,282.402731656784,4.91199680955753,animal,0.857025122927098,0,1,1
34,1,animal,0,0,animals,1,springhare.jpg,169,(unused),284.954675122628,292.41011306797,7.41286778363827,animal,0.569041036549152,0,1,1
35,1,tool,0,0,animals,1,dremel.jpg,165,(unused),294.945443707978,302.18398831205,7.18997505283397,tool,0.553584783614497,0,2,1
36,1,animal,0,0,animals,1,lobsterspiny.jpg,155,(unused),304.736125181515,310.056638281644,5.2770440361241,animal,0.644252273075381,0,1,1
37,1,animal,0,0,animals,1,chimp.jpg,141,(unused),312.608665138768,317.445476423019,4.78169013296523,animal,0.61271016304454,0,1,1
38,1,animal,0,0,animals,1,shrimp.jpg,177,(unused),319.997490129979,327.336183491264,7.28306859319274,animal,0.57941427025753,0,1,1
39,1,tool,0,0,animals,1,drill.jpg,124,(unused),329.888204575145,336.376234719168,6.44075922761954,tool,0.445731313639044,0,2,1
40,1,tool,0,0,animals,1,hairbrush.jpg,131,(unused),338.928247784657,343.448146547644,4.46901597725797,tool,0.615176941242225,0,2,1
41,1,animal,0,0,animals,1,brown_bear.jpg,129,(unused),346.000224401742,351.087235183594,5.02836866159961,animal,0.518372495075255,0,1,1
42,1,tool,0,0,animals,1,crutches.jpg,121,(unused),353.655912071893,359.41007361748,5.70041699169531,tool,0.559966782388074,0,2,1
43,1,tool,0,0,animals,1,caulkinggun.jpg,156,(unused),361.962060061906,368.149829319519,6.13926437630376,tool,0.615412681974703,0,2,1
44,1,tool,0,0,animals,1,camera.jpg,133,(unused),370.70193154953,376.139192120337,5.36914837501624,tool,0.618369865042951,0,2,1
45,1,animal,0,0,animals,1,fly.jpg,147,(unused),378.707891139399,386.180037810547,7.41852262853552,animal,0.591011752097529,0,1,1
46,1,tool,0,0,animals,1,jumpercables.jpg,167,(unused),388.732022972031,393.935803996795,5.15312308315142,tool,0.723489704726035,0,2,1
47,1,animal,0,0,animals,1,bluejay.jpg,139,(unused),396.487834061275,401.608194298773,5.07635778762544,animal,0.730523438423461,0,1,1
48,1,animal,0,0,animals,1,earthworm.jpg,137,(unused),404.176866376038,409.730756066053,5.5069606193273,animal,0.634185341951252,0,1,1
49,1,animal,0,0,animals,1,duck.jpg,149,(unused),412.282933989687,419.888518254651,7.55459989744131,animal,0.891851245694852,0,1,1
50,1,tool,0,0,animals,1,glove.jpg,150,(unused),422.440467173002,428.711737081066,6.22001771171812,tool,1.02512269842191,0,2,1
51,1,animal,0,0,animals,1,penguin.jpg,164,(unused),431.263773239525,437.101306499816,5.77403238795498,animal,0.675744669073083,0,1,1
52,1,tool,0,0,animals,1,lantern.jpg,140,(unused),439.653332394732,447.358954763096,7.65522456239391,tool,0.721676265131009,0,2,1
53,1,tool,0,0,animals,1,telephone.jpg,138,(unused),449.910963979757,457.383125084012,7.41348150392732,tool,0.57873719721465,0,2,1
54,1,animal,0,0,animals,1,waterbuffalo.jpg,173,(unused),459.935069512063,465.772718557938,5.76963406802896,animal,0.741587857545255,0,1,1
55,1,animal,0,0,animals,1,mink.jpg,134,(unused),468.324694418087,473.278281397758,4.8991972928965,animal,0.763243610645532,0,1,1
56,1,animal,0,0,animals,1,moth.jpg,159,(unused),475.830324291666,483.035557607637,7.16069649192581,animal,0.708512310177866,0,1,1
57,1,tool,0,0,animals,1,saw.jpg,163,(unused),485.587556881491,492.309183640085,6.66776669294997,tool,0.639119219081294,0,2,1
58,1,tool,0,0,animals,1,oven.jpg,128,(unused),494.861148915956,500.131612494494,5.21655877109001,tool,0.644140336319197,0,2,1
59,1,tool,0,0,animals,1,pencil.jpg,161,(unused),502.683659237231,508.804783146409,6.07501922471437,tool,0.715190027258359,0,2,1
60,1,animal,0,0,animals,1,deer.jpg,142,(unused),511.373446884545,518.612090275209,7.18538187496539,animal,0.813281906486736,0,1,1
