trial,phase,object,toShock,seenBefore,shockedCategory,responseSide,filename,num,name,onsetFixationCross,onsetStimulus,interTrialTime,response,reactionTime,wasShocked,buttonPressed,isResponseCorrect
1,1,tool,0,0,tools,2,hammer.jpg,63,(unused),0.0237607040753574,7.36240768263906,7.13225011849771,tool,1.96036154536705,0,1,1
2,1,tool,0,0,tools,2,wrench.jpg,118,(unused),9.94795393896766,14.3011418374435,4.30739978625664,tool,1.0608862064928,0,1,1
3,1,animal,0,0,tools,2,manatee.jpg,65,(unused),16.8528875753336,23.5747873502405,6.68252631217407,animal,0.959659131951412,0,2,1
4,1,animal,0,0,tools,2,prayingmantis.jpg,96,(unused),26.1267726784599,33.6656395541186,7.48749756590157,animal,0.994240323565464,0,2,1
5,1,tool,0,0,tools,2,level.jpg,100,(unused),36.2176518242222,43.4062456567117,7.13446969259816,tool,1.10020307576906,0,1,1
6,1,tool,0,0,tools,2,carjack.jpg,88,(unused),45.9749333495947,50.8951885790466,4.86114831051762,tool,1.42845690167724,0,1,1
7,1,animal,0,0,tools,2,caiman.jpg,64,(unused),53.4471986039935,60.7859190312665,7.27847197407271,animal,0.747137698720508,0,2,1
8,1,animal,0,0,tools,2,macaw.jpg,81,(unused),63.3379630543059,70.3095406491775,6.91415231672348,animal,1.48598423967178,0,2,1
9,1,tool,0,0,tools,2,clippers.jpg,61,(unused),72.8784230292495,80.3339140739599,7.41159392310502,tool,1.30101761874084,0,1,1
10,1,tool,0,0,tools,2,stove.jpg,101,(unused),82.9025812396931,89.2739199498565,6.30550898334028,tool,1.68842171044435,0,1,1
11,1,tool,0,0,tools,2,stopwatch.jpg,111,(unused),91.8259367102746,95.9122479236794,4.03023969078572,tool,1.85740313401402,0,1,1
12,1,animal,0,0,tools,2,pelican.jpg,92,(unused),98.4642650048336,103.567859757838,5.04383036314536,animal,1.19709731796684,0,2,1
13,1,tool,0,0,tools,2,thermometer.jpg,79,(unused),106.119995832315,110.889981097671,4.71606966939578,tool,1.10336361540158,0,1,1
14,1,tool,0,0,tools,2,burnisher.jpg,95,(unused),113.442150849503,119.379794178725,5.88017042805593,tool,0.992849929886688,0,1,1
15,1,animal,0,0,tools,2,cow.jpg,80,(unused),121.931783355785,128.069619319481,6.08181866831369,animal,1.06141221471262,0,2,1
16,1,tool,0,0,tools,2,gardenhose.jpg,114,(unused),130.621667832834,135.358426377741,4.68469289604106,tool,1.36592607085913,0,1,1
17,1,animal,0,0,tools,2,ram.jpg,97,(unused),137.910421969535,145.716150776376,7.75074259849891,animal,0.828642993121321,0,2,1
18,1,animal,0,0,tools,2,flea.jpg,77,(unused),148.284817621372,152.638032140995,4.29667829626265,animal,1.20303351317034,0,2,1
19,1,animal,0,0,tools,2,seal.jpg,107,(unused),155.190000149431,162.762302545142,7.52492005275569,animal,0.734232536078707,0,2,1
20,1,tool,0,0,tools,2,electricsander.jpg,103,(unused),165.330981578134,172.819776640841,7.42642934657356,tool,0.822200675375825,0,1,1
21,1,animal,0,0,tools,2,hedgehog.jpg,108,(unused),175.371809117359,180.292063705337,4.86715973237064,animal,1.57627675797448,0,2,1
22,1,animal,0,0,tools,2,kangaroo.jpg,115,(unused),182.84408880491,186.997005488415,4.10412025119311,animal,1.07861172129105,0,2,1
23,1,tool,0,0,tools,2,airhorn.jpg,89,(unused),189.549112375851,194.569443555758,4.97901448625871,tool,1.41054022779372,0,1,1
24,1,animal,0,0,tools,2,catfish.jpg,87,(unused),197.121404507987,204.777079848016,7.60040375865111,animal,0.94630878674252,0,2,1
25,1,animal,0,0,tools,2,wasp.jpg,104,(unused),207.329099815801,213.90056059836,6.51281848745772,animal,0.908228678256819,0,2,1
26,1,animal,0,0,tools,2,rooster.jpg,106,(unused),216.452587301616,224.008102978907,7.50387503846596,animal,0.761124385579933,0,2,1
27,1,tool,0,0,tools,2,eraser.jpg,117,(unused),226.560156944784,230.77985806948,4.16196195526408,tool,1.43769283624897,0,1,1
28,1,animal,0,0,tools,2,baboon.jpg,113,(unused),233.315136221985,240.186866551683,6.82081584266033,animal,1.03707342949656,0,2,1
29,1,tool,0,0,tools,2,lighterbic.jpg,69,(unused),242.7389400825,250.578004660273,7.78921178610343,tool,0.663380191075703,0,1,1
30,1,animal,0,0,tools,2,shark.jpg,110,(unused),253.130019817007,259.701509465871,6.51862405086751,animal,0.946285693698883,0,2,1
31,1,tool,0,0,tools,2,curlingiron.jpg,99,(unused),262.253517566398,266.940216486349,4.63817257032855,tool,0.774885915264349,0,1,1
32,1,tool,0,0,tools,2,paintgun.jpg,94,(unused),269.492247038445,276.53076238666,6.98275761214693,tool,1.16777556707802,0,1,1
33,1,animal,0,0,tools,2,stinkbug.jpg,62,(unused),279.099454249121,283.485995559047,4.32395397417952,animal,0.921765692236477,0,2,1
34,1,animal,0,0,tools,2,cheetah.jpg,67,(unused),286.037956832013,293.126546238336,7.03553205897111,animal,0.760662524704458,0,2,1
35,1,animal,0,0,tools,2,orangutan.jpg,73,(unused),295.678528359188,303.384214251455,7.64467746631298,animal,0.809482181503881,0,2,1
36,1,tool,0,0,tools,2,mixer.jpg,116,(unused),305.936234539978,311.106617262275,5.11653642367351,tool,0.911423857455702,0,1,1
37,1,animal,0,0,tools,2,dragonfly.jpg,68,(unused),313.675330614095,319.546252045788,5.81677697350602,animal,1.11816369058215,0,2,1
38,1,tool,0,0,tools,2,reflexhammer.jpg,93,(unused),322.114994584649,326.334694105662,4.15865749765656,tool,1.52005321474371,0,1,1
39,1,tool,0,0,tools,2,generator.jpg,66,(unused),328.870025500462,334.257308032948,5.33552093922961,tool,0.76674657953572,0,1,1
40,1,tool,0,0,tools,2,magnifyingglass.jpg,74,(unused),336.809304266216,342.179917790657,5.31289553410739,tool,1.07051343986313,0,1,1
41,1,animal,0,0,tools,2,dolphin.jpg,86,(unused),344.731938720653,349.268519384975,4.48217312186504,animal,0.930149429344965,0,2,1
42,1,tool,0,0,tools,2,keys.jpg,72,(unused),351.820565011698,357.824775964087,5.9631957272089,tool,1.06534123952497,0,1,1
43,1,animal,0,0,tools,2,seaslug.jpg,119,(unused),360.376978431065,365.664172825101,5.23880257163929,animal,0.863271333033481,0,2,1
44,1,tool,0,0,tools,2,mallet.jpg,82,(unused),368.232840953044,376.005216669168,7.71005606004208,tool,1.00369403837067,0,1,1
45,1,tool,0,0,tools,2,pliers2.jpg,70,(unused),378.557242730952,385.2119600304,6.61089867324026,tool,1.189347677353,0,1,1
46,1,animal,0,0,tools,2,baldeagle.jpg,71,(unused),387.764142932439,393.601706141628,5.78492604779306,animal,1.55099115796202,0,2,1
47,1,animal,0,0,tools,2,starfish.jpg,105,(unused),396.170431360707,402.208204524152,5.98308332401048,animal,1.33685449461154,0,2,1
48,1,tool,0,0,tools,2,avocadoslicer.jpg,76,(unused),404.743533994532,411.231640114766,6.44467706102477,tool,0.885814634093549,0,1,1
49,1,animal,0,0,tools,2,ant.jpg,112,(unused),413.783592407104,421.289143397506,7.45657152956246,animal,0.709700346620593,0,2,1
50,1,animal,0,0,tools,2,turtle.jpg,78,(unused),423.841126480569,428.928143314756,5.04194679475229,animal,0.665060851485578,0,2,1
51,1,tool,0,0,tools,2,tubeflaring.jpg,109,(unused),431.496878155937,435.983439608131,4.43076995077515,tool,0.937084719429549,0,1,1
52,1,animal,0,0,tools,2,malaysianjunglenymph.jpg,85,(unused),438.535474650542,446.174421646233,7.59324840351704,animal,0.650526987781632,0,2,1
53,1,tool,0,0,tools,2,hoe.jpg,91,(unused),448.726415634344,456.048471864622,7.27718802827292,tool,0.741929575870927,0,1,1
54,1,tool,0,0,tools,2,fishingpole.jpg,120,(unused),458.600475154099,465.17197282138,6.52263629963887,tool,0.871829230180083,0,1,1
55,1,tool,0,0,tools,2,shoehorn.jpg,102,(unused),467.723970337595,475.513040720703,7.73942077364124,tool,1.28323693722723,0,1,1
56,1,animal,0,0,tools,2,gerbil.jpg,90,(unused),478.065087951109,483.469106525614,5.34289018595299,animal,0.815491825414938,0,2,1
57,1,tool,0,0,tools,2,ducttape.jpg,83,(unused),486.037641868555,494.060314426513,7.9718390425612,tool,0.715670219178719,0,1,1
58,1,tool,0,0,tools,2,padlock.jpg,84,(unused),496.628958178466,504.284448774145,7.6150889125978,tool,0.842069032195468,0,1,1
59,1,animal,0,0,tools,2,goldfish.jpg,98,(unused),506.836592225567,512.240566538404,5.34951766480563,animal,1.09130808433019,0,2,1
60,1,animal,0,0,tools,2,crow.jpg,75,(unused),514.792582336612,522.43150816368,7.59490754479978,animal,0.846888101405966,0,2,1
