trial,phase,object,toShock,seenBefore,shockedCategory,responseSide,filename,num,name,onsetFixationCross,onsetStimulus,interTrialTime,response,reactionTime,wasShocked,buttonPressed,isResponseCorrect
1,3,animal,0,0,tools,2,octopus.jpg,170,(unused),0.0184337380887882,5.3891015474228,5.30191117944399,animal,1.35421299839754,0,2,1
2,3,tool,0,0,tools,2,measuringdevice.jpg,145,(unused),7.95817845327883,12.0780555737697,4.06256388970365,tool,0.796483972860187,0,1,1
3,3,tool,0,0,tools,2,telephone.jpg,138,(unused),14.6302439240148,20.9519103538732,6.27002203059373,tool,1.16697473717159,0,1,1
4,3,tool,0,0,tools,2,pruner.jpg,135,(unused),23.520783273073,31.4270401788713,7.85344045004081,tool,0.748181792929245,0,1,1
5,3,animal,0,0,tools,2,springhare.jpg,169,(unused),33.9792054362874,40.1675232872685,6.14545042622187,animal,0.53408528863838,0,2,1
6,3,animal,0,0,tools,2,gecko.jpg,122,(unused),42.7363474549406,47.9405397014589,5.15114333659446,animal,0.445155445615001,0,2,1
7,3,tool,0,0,tools,2,oven.jpg,128,(unused),50.4926340767192,55.3130084307218,4.78107642934693,tool,0.545010762626589,0,1,1
8,3,tool,0,0,tools,2,beadingtool.jpg,154,(unused),57.8652596447791,64.1035003432598,6.19788695913322,tool,0.791775601613608,0,1,1
9,3,animal,0,0,tools,2,palmcockatoo.jpg,160,(unused),66.6557050509255,72.7269932555255,6.02057034357079,animal,0.650647946699792,0,2,1
10,3,animal,0,0,tools,2,earthworm.jpg,137,(unused),75.2960377672744,82.9687437432813,7.6087861828671,animal,0.62223831455276,0,2,1
11,3,animal,0,0,tools,2,penguin.jpg,164,(unused),85.5210322578596,91.6925256045697,6.11749165047749,animal,0.608757875622359,0,2,1
12,3,tool,0,0,tools,2,jumpercables.jpg,167,(unused),94.2447219731584,98.364666127,4.07695136736136,tool,0.74375534663659,0,1,1
13,3,animal,0,0,tools,2,shrimp.jpg,177,(unused),100.933476182387,106.020781188304,5.03933567457027,animal,0.595015076495201,0,2,1
14,3,tool,0,0,tools,2,ladder.jpg,158,(unused),108.572988782573,113.860472373033,5.23394070160849,tool,0.622577971579176,0,1,1
15,3,animal,0,0,tools,2,elephantafrican.jpg,153,(unused),116.412674835562,122.317304659117,5.85210857199816,animal,0.4399624456928,0,2,1
16,3,animal,0,0,tools,2,otter.jpg,146,(unused),124.869516743659,129.87327349791,4.95357383768319,animal,0.614254289658675,0,2,1
17,3,tool,0,0,tools,2,caulkinggun.jpg,156,(unused),132.442304859576,136.545636609554,4.04982495572412,tool,0.561204288231238,0,1,1
18,3,animal,0,0,tools,2,fly.jpg,147,(unused),139.09770660905,144.818718613793,5.68354241066957,animal,0.621397029962736,0,2,1
19,3,tool,0,0,tools,2,camera.jpg,133,(unused),147.37107791512,153.559296017909,6.12656032746989,tool,0.647059256925786,0,1,1
20,3,animal,0,0,tools,2,mink.jpg,134,(unused),156.111463520461,162.833505401231,6.66953132823822,animal,0.534169641611243,0,2,1
21,3,tool,0,0,tools,2,lantern.jpg,140,(unused),165.402350095862,171.824050491423,6.3735867851729,tool,1.19702331871122,0,1,1
22,3,animal,0,0,tools,2,bluejay.jpg,139,(unused),174.376221201313,179.446849656617,5.03120660622859,animal,0.544393670917998,0,2,1
23,3,tool,0,0,tools,2,binoculars.jpg,144,(unused),181.999112737823,189.621819852435,7.57030719243526,tool,0.67672456165019,0,1,1
24,3,tool,0,0,tools,2,wheeldolly.jpg,148,(unused),192.174012692952,198.011878261255,5.78897489103251,tool,0.634078841890187,0,1,1
25,3,animal,0,0,tools,2,stickinsect.jpg,162,(unused),200.580836816363,205.301047948967,4.68160674364208,animal,0.729169017783533,0,2,1
26,3,tool,0,0,tools,2,drill.jpg,124,(unused),207.853380629393,213.407751251979,5.49994804568276,tool,0.748670270409548,0,1,1
27,3,tool,0,0,tools,2,hairbrush.jpg,131,(unused),215.976620963841,222.281438609072,6.25177648254257,tool,0.898370817356863,0,1,1
28,3,tool,0,0,tools,2,pencil.jpg,161,(unused),224.833779628575,232.573163582459,7.70192694365206,tool,0.682914081290619,0,1,1
29,3,animal,0,0,tools,2,duck.jpg,149,(unused),235.125463548045,239.762434012637,4.58449075915442,animal,0.535888774436899,0,2,1
30,3,tool,0,0,tools,2,carpetblower.jpg,168,(unused),242.31459991152,248.652967267754,6.28021408370991,tool,0.549733246157757,0,1,1
31,3,animal,0,0,tools,2,brown_bear.jpg,129,(unused),251.221836338149,256.025483465609,4.75253366756676,animal,0.517389173269294,0,2,1
32,3,tool,0,0,tools,2,smartphone.jpg,176,(unused),258.594472169688,265.900250091725,7.2531936756252,tool,0.56805772670532,0,1,1
33,3,animal,0,0,tools,2,lemur.jpg,127,(unused),268.469137443943,273.973450831593,5.45752504873805,animal,0.526127243176688,0,2,1
34,3,animal,0,0,tools,2,prairiedog.jpg,152,(unused),276.525636936702,282.830718225064,6.25864102835833,animal,0.484730460585524,0,2,1
35,3,tool,0,0,tools,2,crutches.jpg,121,(unused),285.366145350991,293.322487716293,7.90181338056041,tool,0.645752266951604,0,1,1
36,3,animal,0,0,tools,2,moth.jpg,159,(unused),295.874670934799,301.929265910633,6.00574629121875,animal,0.544274357968334,0,2,1
37,3,animal,0,0,tools,2,lobsterspiny.jpg,155,(unused),304.498320365128,309.30206724078,4.75212055014147,animal,0.499660616002984,0,2,1
38,3,tool,0,0,tools,2,electricdrill.jpg,157,(unused),311.870949461258,318.926569822847,7.00366661802605,tool,0.601432637822199,0,1,1
39,3,tool,0,0,tools,2,chainsaw.jpg,179,(unused),321.478730589991,328.650900138824,7.1246482535525,tool,0.560561858557776,0,1,1
40,3,tool,0,0,tools,2,typewriter.jpg,136,(unused),331.203306267276,338.742502014603,7.49719224868874,tool,0.628246298898375,0,1,1
41,3,animal,0,0,tools,2,chimp.jpg,141,(unused),341.311477568599,349.034262910169,7.6783712166698,animal,0.628779037633649,0,2,1
42,3,tool,0,0,tools,2,dremel.jpg,165,(unused),351.603139036706,358.708593081816,7.06146538238015,tool,0.781920416102821,0,1,1
43,3,animal,0,0,tools,2,angelfish.jpg,132,(unused),361.260961042954,366.415012663766,5.10014835732691,animal,0.480688894775994,0,2,1
44,3,tool,0,0,tools,2,corkscrew.jpg,151,(unused),368.967160280826,376.406420206974,7.38983079286709,tool,0.498636513183556,0,1,1
45,3,animal,0,0,tools,2,highlandcow.jpg,178,(unused),378.975260732066,384.112720796707,5.08992940983298,animal,0.404733372847659,0,2,1
46,3,tool,0,0,tools,2,magnet.jpg,180,(unused),386.664846603874,392.852892472647,6.1372049467347,tool,0.465800114010108,0,1,1
47,3,animal,0,0,tools,2,sparrow.jpg,172,(unused),395.421939550265,402.861226418047,7.38991441670192,animal,0.355790366911606,0,2,1
48,3,animal,0,0,tools,2,deer.jpg,142,(unused),405.413361847226,410.617480966452,5.14640312801668,animal,0.477750973752791,0,2,1
49,3,tool,0,0,tools,2,wateringcan.jpg,123,(unused),413.169651676342,418.307020011134,5.08071546881553,tool,0.47847037952306,0,1,1
50,3,tool,0,0,tools,2,tape.jpg,126,(unused),420.859221190728,427.030729386598,6.11593437796791,tool,0.544144460805001,0,1,1
51,3,animal,0,0,tools,2,giraffe.jpg,171,(unused),429.599556440874,434.019763820892,4.36561074857077,animal,0.388280373650559,0,2,1
52,3,animal,0,0,tools,2,beetle.jpg,125,(unused),436.571913362356,441.592353723361,4.97831111976987,animal,0.456947862891866,0,2,1
53,3,animal,0,0,tools,2,aardvark.jpg,175,(unused),444.144736758984,450.332942673891,6.14077962196739,animal,0.680746883435404,0,2,1
54,3,tool,0,0,tools,2,saw.jpg,163,(unused),452.901811102819,458.406153677239,5.46201685101003,tool,0.567725125820743,0,1,1
55,3,animal,0,0,tools,2,waterbuffalo.jpg,173,(unused),460.958347479958,465.69537660675,4.67255319956773,animal,0.39283254756765,0,2,1
56,3,animal,0,0,tools,2,crab.jpg,143,(unused),468.264227074589,472.934586241849,4.62037321350537,animal,0.646809084611959,0,2,1
57,3,tool,0,0,tools,2,glove.jpg,150,(unused),475.486782931171,482.158698298518,6.61542554562906,tool,0.638084164787415,0,1,1
58,3,animal,0,0,tools,2,dog.jpg,130,(unused),484.727610347234,490.148547075769,5.37906841072213,animal,0.558505313841579,0,2,1
59,3,tool,0,0,tools,2,faxmachine.jpg,174,(unused),492.700721955197,500.00650725411,7.25331200149855,tool,0.577816692095439,0,1,1
60,3,tool,0,0,tools,2,ruler.jpg,166,(unused),502.558700415361,509.113890833376,6.50334157372537,tool,0.57684743474465,0,1,1
