trial,phase,object,toShock,seenBefore,shockedCategory,responseSide,filename,num,name,onsetFixationCross,onsetStimulus,interTrialTime,response,reactionTime,wasShocked,buttonPressed,isResponseCorrect
1,2,animal,1,0,animals,1,baldeagle.jpg,71,(unused),0.0314207591100057,9.95523352387681,9.80810641293011,1,1.33789580445136,1,1,1
2,2,tool,0,0,animals,1,shoehorn.jpg,102,(unused),14.5421362178004,24.5496558660689,9.96970698873518,0,0.790031134385572,0,2,1
3,2,animal,1,0,animals,1,macaw.jpg,81,(unused),28.902955851443,37.0923085811601,8.13860706415397,1,2.09294995746586,1,1,1
4,2,animal,1,0,animals,1,wasp.jpg,104,(unused),41.6458380849954,47.8836886170311,6.18788645460997,1,1.85699946366094,1,1,1
5,2,tool,0,0,animals,1,avocadoslicer.jpg,76,(unused),52.4371780289048,61.710512833346,9.23694006729291,0,0.930637491623202,0,2,1
6,2,tool,0,0,animals,1,wrench.jpg,118,(unused),66.0640475972459,72.4853862068949,6.38070968972336,0,2.50939253679644,0,2,1
7,2,tool,0,0,animals,1,clippers.jpg,61,(unused),76.8387349440945,86.3790661742569,9.49280957608181,0,0.657201976176111,0,2,1
8,2,animal,1,0,animals,1,orangutan.jpg,73,(unused),90.7323680840454,99.5054969761732,8.71840534435729,1,0.632233664861815,1,1,1
9,2,tool,0,0,animals,1,magnifyingglass.jpg,74,(unused),104.058990557611,112.531884863654,8.41617404414805,0,0.540378170402619,0,2,1
10,2,tool,0,0,animals,1,generator.jpg,66,(unused),116.885231034968,126.825880499083,9.88900104846793,0,0.569958340212906,0,2,1
11,2,animal,0,0,animals,1,cheetah.jpg,67,(unused),131.179200690806,138.000845025716,6.7635270299774,1,0.577451046683564,0,1,0
12,2,animal,1,0,animals,1,seaslug.jpg,119,(unused),142.370880037223,148.708829933177,6.27284671774237,1,2.10096321796118,1,1,1
13,2,animal,1,0,animals,1,stinkbug.jpg,62,(unused),153.262341155078,159.667058920499,6.36183017852126,1,2.15817765414704,1,1,1
14,2,tool,0,0,animals,1,stove.jpg,101,(unused),164.220497976869,173.510675574636,9.22775510992245,0,0.635067364688439,0,2,1
15,2,animal,1,0,animals,1,flea.jpg,77,(unused),177.864031047285,185.236133200319,7.32626978137617,1,1.07009112478863,1,1,1
16,2,tool,0,0,animals,1,pliers2.jpg,70,(unused),189.789596953337,199.196407839876,9.36563015283762,0,0.653371750557199,0,2,1
17,2,animal,1,0,animals,1,ant.jpg,112,(unused),203.54982842187,209.787698198048,6.19799314361129,1,0.650504694218398,1,1,1
18,2,animal,1,0,animals,1,cow.jpg,80,(unused),214.341200439349,223.581309592119,9.17880931179,1,0.674476800476441,1,1,1
19,2,tool,0,0,animals,1,tubeflaring.jpg,109,(unused),228.134813116363,234.356050501829,6.16340116762248,0,0.614191961523829,0,2,1
20,2,animal,0,0,animals,1,shark.jpg,110,(unused),238.709345034697,247.682644429917,8.92090454287998,1,0.540062245747322,0,1,0
21,2,animal,1,0,animals,1,dolphin.jpg,86,(unused),252.03593415175,261.876544550257,9.79647875021529,1,1.20388345227821,1,1,1
22,2,animal,1,0,animals,1,malaysianjunglenymph.jpg,85,(unused),266.430063149078,275.636738171978,9.14258931437732,1,2.94625411240395,1,1,1
23,2,tool,0,0,animals,1,curlingiron.jpg,99,(unused),280.190269279492,287.945986713914,7.70143878167547,0,1.45344436511823,0,2,1
24,2,animal,0,0,animals,1,hedgehog.jpg,108,(unused),292.299292151795,299.871467945744,7.51469029491585,1,1.17643713701818,0,1,0
25,2,animal,0,0,animals,1,dragonfly.jpg,68,(unused),304.224873132425,313.765148233842,9.49479595403785,0,1.14731337409557,0,2,1
26,2,tool,0,0,animals,1,fishingpole.jpg,120,(unused),318.11857972085,327.542138142215,9.36420478331763,0,1.14189839342907,0,2,1
27,2,animal,0,0,animals,1,gerbil.jpg,90,(unused),331.895453522902,341.102277687899,9.15933018599672,1,0.720277536372123,0,1,0
28,2,tool,0,0,animals,1,gardenhose.jpg,114,(unused),345.455605898014,351.760204413906,6.25423578348751,0,1.45488863793253,0,2,1
29,2,tool,0,0,animals,1,thermometer.jpg,79,(unused),356.113529416664,364.970035476003,8.80177839699309,0,0.949501561271973,0,2,1
30,2,animal,0,0,animals,1,baboon.jpg,113,(unused),369.34005188484,378.513467899558,9.11512674575874,1,1.60564018580317,0,1,0
31,2,tool,0,0,animals,1,padlock.jpg,84,(unused),382.86681054278,392.407251785285,9.49718057434038,0,1.20346200558015,0,2,1
32,2,animal,1,0,animals,1,seal.jpg,107,(unused),396.760505905455,403.115124435254,6.29809143729294,1,2.81618969584724,1,1,1
33,2,tool,0,0,animals,1,hammer.jpg,63,(unused),407.685310705714,415.891348747533,8.16621980044956,0,0.811255177245584,0,2,1
34,2,tool,0,0,animals,1,ducttape.jpg,83,(unused),420.261367722256,428.033716585183,7.72516563763312,0,1.04238854171217,0,2,1
35,2,animal,0,0,animals,1,crow.jpg,75,(unused),432.387090019031,441.093450400219,8.63957329262612,1,0.873197257512402,0,1,0
36,2,animal,1,0,animals,1,rooster.jpg,106,(unused),445.446751347801,453.119048957165,7.63105124684419,1,2.93515505382675,1,1,1
37,2,tool,0,0,animals,1,level.jpg,100,(unused),457.672557933915,464.310755886852,6.59552211952253,0,0.716807817670087,0,2,1
38,2,animal,1,0,animals,1,catfish.jpg,87,(unused),468.664086342117,478.704789304946,9.98445638768213,1,1.7394607380329,1,1,1
39,2,tool,0,0,animals,1,mixer.jpg,116,(unused),483.25831880878,491.19746145662,7.88601534432341,0,0.71920756210875,0,2,1
40,2,tool,0,0,animals,1,eraser.jpg,117,(unused),495.550799930277,505.574659458309,9.97547809675574,0,0.73158314873308,0,2,1
41,2,tool,0,0,animals,1,electricsander.jpg,103,(unused),509.928183317195,516.532891332252,6.56007322553183,0,0.648814417128051,0,2,1
42,2,animal,1,0,animals,1,prayingmantis.jpg,96,(unused),520.886349119586,530.693547198251,9.76340657839229,0,2.10177115116676,1,2,0
43,2,tool,0,0,animals,1,hoe.jpg,91,(unused),535.24705777868,545.037575356278,9.73714667786867,0,0.799287245683445,0,2,1
44,2,animal,1,0,animals,1,turtle.jpg,78,(unused),549.39097156236,557.546923197984,8.09278711410244,1,1.75947432439716,1,1,1
45,2,animal,0,0,animals,1,ram.jpg,97,(unused),562.100447249312,572.12444244854,9.97082159488498,1,2.06856281922228,0,1,0
46,2,tool,0,0,animals,1,reflexhammer.jpg,93,(unused),576.477818448273,583.616342910143,7.0841397152162,0,0.847084240518598,0,2,1
47,2,tool,0,0,animals,1,stopwatch.jpg,111,(unused),587.969668554372,594.92471680585,6.90567709337487,0,0.933178039029372,0,2,1
48,2,animal,1,0,animals,1,goldfish.jpg,98,(unused),599.294798003298,607.367243215227,8.01922729830086,1,1.97019799392092,1,1,1
49,2,tool,0,0,animals,1,paintgun.jpg,94,(unused),611.920886900967,618.358894144462,6.39377029988782,0,0.935944384361392,0,2,1
50,2,tool,0,0,animals,1,carjack.jpg,88,(unused),622.712256031825,631.935716436363,9.16991581244601,0,0.761671363878122,0,2,1
51,2,tool,0,0,animals,1,keys.jpg,72,(unused),636.289072550483,644.311629891609,7.96497910327957,0,0.817318044007152,0,2,1
52,2,animal,1,0,animals,1,manatee.jpg,65,(unused),648.681609415843,656.904262207911,8.16266130619504,0,3.44335562396645,1,2,0
53,2,animal,1,0,animals,1,pelican.jpg,92,(unused),661.457788183653,671.014810819896,9.50222555349553,1,2.97632564929245,1,1,1
54,2,tool,0,0,animals,1,airhorn.jpg,89,(unused),675.568339682259,684.891830813275,9.28470924972367,0,1.3727273797258,0,2,1
55,2,animal,1,0,animals,1,caiman.jpg,64,(unused),689.245225094943,695.482967218316,6.1826296118768,0,2.17506374679033,1,2,0
56,2,animal,0,0,animals,1,starfish.jpg,105,(unused),700.036537455583,709.643617952544,9.54662590969939,1,2.38913814207535,0,1,0
57,2,tool,0,0,animals,1,mallet.jpg,82,(unused),713.996975670343,721.669110666712,7.62659163890446,0,1.20989852942148,0,2,1
58,2,tool,0,0,animals,1,lighterbic.jpg,69,(unused),726.022581604209,734.395289626964,8.326045400874,0,1.12427621237566,0,2,1
59,2,animal,0,0,animals,1,kangaroo.jpg,115,(unused),738.748737150756,744.95328248867,6.14624729859031,1,1.45372853693971,0,1,0
60,2,tool,0,0,animals,1,burnisher.jpg,95,(unused),749.306595624208,755.611155651817,6.26385926811676,0,1.68332878480396,0,2,1
