trial,phase,object,toShock,seenBefore,shockedCategory,responseSide,filename,num,name,onsetFixationCross,onsetStimulus,interTrialTime,response,reactionTime,wasShocked,buttonPressed,isResponseCorrect
1,3,animal,0,0,animals,2,rat.jpg,48,(unused),0.0182831056608848,4.17122976859719,4.08051482520184,tool,0.574856614504824,0,1,0
2,3,tool,0,0,animals,2,clamp.jpg,31,(unused),6.73992365588856,13.6449586289091,6.86076670697747,tool,0.766510943538378,0,1,1
3,3,animal,0,0,animals,2,frog.jpg,5,(unused),16.196972656604,21.050508382712,4.80667065326033,animal,0.638208969601692,0,2,1
4,3,tool,0,0,animals,2,monkeywrench.jpg,16,(unused),23.602500279645,28.2224775587292,4.58476303400336,tool,0.965595756317271,0,1,1
5,3,animal,0,0,animals,2,mahimahi.jpg,39,(unused),30.7911505981992,35.3611639921219,4.527059172298,animal,0.59819238115233,0,2,1
6,3,animal,0,0,animals,2,ferret.jpg,21,(unused),37.9132200361946,44.2677773054766,6.30300572611417,animal,0.459054351906161,0,2,1
7,3,tool,0,0,animals,2,spraybottle.jpg,49,(unused),46.8198096151064,51.5898770850654,4.72671229930821,tool,1.17016514941133,0,1,1
8,3,animal,0,0,animals,2,caterpillarpeacockmoth.jpg,1,(unused),54.1252365912878,59.4122350568869,5.23965138485068,animal,0.939100743118615,0,2,1
9,3,tool,0,0,animals,2,flashlight.jpg,51,(unused),61.964385717989,66.2840376427866,4.28215083354252,tool,0.73457144198801,0,1,1
10,3,animal,0,0,animals,2,herculesbeetle.jpg,28,(unused),68.8528736159897,74.0566828654937,5.1504902332508,animal,1.04925741608713,0,2,1
11,3,tool,0,0,animals,2,spoon.jpg,44,(unused),76.6086795734627,81.4454036176048,4.7991207116758,tool,1.40192715582998,0,1,1
12,3,tool,0,0,animals,2,hourglass.jpg,10,(unused),83.9975257332299,90.1686539402654,6.1179588211645,tool,1.02289422525428,0,1,1
13,3,tool,0,0,animals,2,pressuregauge.jpg,38,(unused),92.7206416676345,97.5742097880466,4.80599528238733,tool,0.409667470254135,0,1,1
14,3,animal,0,0,animals,2,hippo.jpg,45,(unused),100.12619879836,107.66507356775,7.48738174983361,animal,0.73521644146058,0,2,1
15,3,animal,0,0,animals,2,quail.jpg,47,(unused),110.233729287495,116.955287729386,6.66734622708851,tool,0.763355545812374,0,1,0
16,3,tool,0,0,animals,2,compass.jpg,32,(unused),119.523992200955,124.077271210215,4.49996375858982,tool,0.815718854675652,0,1,1
17,3,animal,0,0,animals,2,leopard.jpg,50,(unused),126.629284917175,133.684442475376,6.99930808302831,animal,0.724902223118988,0,2,1
18,3,tool,0,0,animals,2,anvil.jpg,6,(unused),136.236413845225,140.956475734383,4.68090363340422,tool,0.630156900087968,0,1,1
19,3,animal,0,0,animals,2,armadillo.jpg,57,(unused),143.508543966413,148.845730832158,5.27976237561171,animal,1.14725628196538,0,2,1
20,3,animal,0,0,animals,2,porcupine.jpg,60,(unused),151.414419266941,158.969962349442,7.50120618985491,animal,0.618505534652286,0,2,1
21,3,animal,0,0,animals,2,panda.jpg,18,(unused),161.538637954798,166.909195444747,5.3252199870911,animal,0.705510543260971,0,2,1
22,3,tool,0,0,animals,2,loom.jpg,14,(unused),169.461212038328,173.714260310333,4.19501143272819,tool,1.18873670810899,0,1,1
23,3,animal,0,0,animals,2,emu.jpg,26,(unused),176.266275941707,182.404067522524,6.08987613673945,animal,1.05637293738437,0,2,1
24,3,tool,0,0,animals,2,italiangardeningtool.jpg,2,(unused),184.956117472617,189.97639085489,4.98161889390271,tool,0.837242785408307,0,1,1
25,3,tool,0,0,animals,2,viceclamp.jpg,4,(unused),192.511698081194,198.282573484359,5.71679243376212,tool,0.634402478424818,0,1,1
26,3,tool,0,0,animals,2,blender.jpg,24,(unused),200.834595530447,207.622875335132,6.72772958624493,tool,0.489467151570352,0,1,1
27,3,animal,0,0,animals,2,mountainsheep.jpg,7,(unused),210.174885193264,214.244437048528,4.01211151379166,animal,0.721139351995589,0,2,1
28,3,tool,0,0,animals,2,nailgun.jpg,25,(unused),216.796510733062,221.816817471848,4.97796148192429,tool,1.01513049712412,0,1,1
29,3,animal,0,0,animals,2,beta.jpg,17,(unused),224.385486341755,231.557249926194,7.12154172471866,animal,0.602088678322616,0,2,1
30,3,tool,0,0,animals,2,sawblade.jpg,34,(unused),234.12608718234,241.348031469266,7.17497946850209,tool,0.730692464543608,0,1,1
31,3,animal,0,0,animals,2,partridge.jpg,33,(unused),243.900014064866,249.470786319433,5.51623385484432,animal,0.517263389467189,0,2,1
32,3,animal,0,0,animals,2,cat.jpg,8,(unused),252.039421191355,256.909606948639,4.81442133552679,animal,0.800745308955811,0,2,1
33,3,animal,0,0,animals,2,phasmagigas.jpg,36,(unused),259.461628673991,263.547887972118,4.03812902025182,animal,0.960759062103534,0,2,1
34,3,tool,0,0,animals,2,bucket.jpg,22,(unused),266.099875699489,270.51977099853,4.37235255995528,tool,0.744177155187572,0,1,1
35,3,tool,0,0,animals,2,workbench.jpg,11,(unused),273.071801704482,277.625085524776,4.50109661334408,tool,0.887127448853789,0,1,1
36,3,tool,0,0,animals,2,abacus.jpg,12,(unused),280.177073893617,285.247378836284,5.02297506163287,tool,0.672130296985415,0,1,1
37,3,animal,0,0,animals,2,salamander.jpg,9,(unused),287.799434880355,294.220714153902,6.38080091773482,animal,1.24117250323616,0,2,1
38,3,tool,0,0,animals,2,washboard.jpg,59,(unused),296.772770197973,304.561811108451,7.73633356543697,tool,0.72149344419995,0,1,1
39,3,tool,0,0,animals,2,floorbuffer.jpg,56,(unused),307.1138094201,314.35226838774,7.20043022090701,tool,0.655423174859607,0,1,1
40,3,tool,0,0,animals,2,electricbreaker.jpg,41,(unused),316.904457537124,322.608478472184,5.6667570611604,tool,0.47548820722659,0,1,1
41,3,animal,0,0,animals,2,racoon.jpg,23,(unused),325.160602191487,330.497799641509,5.29089955856859,animal,0.674550247773368,0,2,1
42,3,animal,0,0,animals,2,seahorse.jpg,42,(unused),333.049799556835,337.386211204415,4.2876737362251,animal,0.420403456027998,0,2,1
43,3,animal,0,0,animals,2,rhino.jpg,35,(unused),339.921633254096,346.876718390178,6.89894972981628,animal,0.414287667877943,0,2,1
44,3,tool,0,0,animals,2,scale.jpg,43,(unused),349.428686231935,356.250281494284,6.77341563235425,tool,0.661084480534555,0,1,1
45,3,tool,0,0,animals,2,vegetablepeeler.jpg,3,(unused),358.802385648709,363.439008789404,4.57260276774691,tool,0.484679529914501,0,1,1
46,3,animal,0,0,animals,2,cockatiel.jpg,20,(unused),366.007757522499,372.34564872382,6.28961372830365,animal,0.434406134812889,0,2,1
47,3,tool,0,0,animals,2,woodchipper.jpg,13,(unused),374.914337800075,378.98396855632,4.02569383467536,tool,0.610347301622824,0,1,1
48,3,tool,0,0,animals,2,television.jpg,54,(unused),381.535953717803,388.908040475524,7.32255901038796,tool,0.648581561839819,0,1,1
49,3,animal,0,0,animals,2,heckcattle.jpg,37,(unused),391.460026599216,398.498386267087,6.99098170568359,animal,0.961737305960924,0,2,1
50,3,tool,0,0,animals,2,plunger.jpg,30,(unused),401.050501326527,405.870659372245,4.77280045429005,tool,1.37972647279094,0,1,1
51,3,animal,0,0,animals,2,firebug.jpg,15,(unused),408.42265640095,415.227627611714,6.75255430616504,animal,0.769162465494446,0,2,1
52,3,animal,0,0,animals,2,chinchilla.jpg,19,(unused),417.779547022381,422.599808986464,4.75682169314048,animal,0.594284858232641,0,2,1
53,3,animal,0,0,animals,2,yak.jpg,53,(unused),425.151802166341,429.671715683169,4.46693835205664,animal,0.835664445074144,0,2,1
54,3,tool,0,0,animals,2,shovel.jpg,52,(unused),432.223725862037,438.428253238753,6.15538886874559,tool,0.326466066198918,0,1,1
55,3,tool,0,0,animals,2,blower.jpg,27,(unused),440.980264379827,447.535023263565,6.50381305900426,tool,0.537200320002739,0,1,1
56,3,animal,0,0,animals,2,tragopan.jpg,55,(unused),450.087058139081,455.924603587328,5.78689340127054,animal,0.48883658520208,0,2,1
57,3,tool,0,0,animals,2,kettle.jpg,58,(unused),458.47659708794,465.63182706826,7.10401240518839,tool,0.660977675548565,0,1,1
58,3,animal,0,0,animals,2,flounder.jpg,29,(unused),468.183876697618,475.27239076765,7.03318397074398,animal,0.554864196697963,0,2,1
59,3,tool,0,0,animals,2,edger.jpg,40,(unused),477.824351553223,483.795393931388,5.91818668536718,tool,0.625182930994924,0,1,1
60,3,animal,0,0,animals,2,squirel.jpg,46,(unused),486.347421429982,491.267465550385,4.86277792325752,animal,0.544411099799618,0,2,1
