trial,phase,object,toShock,seenBefore,shockedCategory,responseSide,filename,num,name,onsetFixationCross,onsetStimulus,interTrialTime,response,reactionTime,wasShocked,buttonPressed,isResponseCorrect
1,3,tool,0,0,animals,1,hourglass.jpg,10,(unused),0.018334742549996,8.02411023013246,7.93391660206482,tool,0.873920196137988,0,2,1
2,3,tool,0,0,animals,1,spoon.jpg,44,(unused),10.6095012967453,16.9641653710123,6.31315909925662,tool,0.575255931995343,0,2,1
3,3,tool,0,0,animals,1,kettle.jpg,58,(unused),19.5161867756287,26.3211246298815,6.76522920405034,tool,0.504677722522501,0,2,1
4,3,animal,0,0,animals,1,rhino.jpg,35,(unused),28.8731591846617,35.1110466013033,6.18615623141315,animal,1.1421171355496,0,1,1
5,3,tool,0,0,animals,1,clamp.jpg,31,(unused),37.6629849353758,42.9168199720298,5.20871957091779,tool,0.540658493775481,0,2,1
6,3,animal,0,0,animals,1,heckcattle.jpg,37,(unused),45.468822132505,49.7552548203475,4.24103171985613,animal,0.767493679250947,0,1,1
7,3,animal,0,0,animals,1,hippo.jpg,45,(unused),52.3072736590793,59.0956015741176,6.72318584393487,animal,0.715527441172526,0,1,1
8,3,animal,0,0,animals,1,ferret.jpg,21,(unused),61.6641857698023,67.9020969208841,6.18263045792776,animal,0.57238566829983,0,1,1
9,3,tool,0,0,animals,1,scale.jpg,43,(unused),70.4541292305148,78.076368337689,7.57442637512152,tool,1.28567810997083,0,2,1
10,3,animal,0,0,animals,1,armadillo.jpg,57,(unused),80.6450048132911,88.4840939624182,7.78765665470633,animal,2.27028632490965,0,1,1
11,3,animal,0,0,animals,1,chinchilla.jpg,19,(unused),91.0193582101392,96.27304827426,5.21316349069103,animal,1.33062023642287,0,1,1
12,3,animal,0,0,animals,1,cat.jpg,8,(unused),98.8419230564805,104.229196969893,5.33453236029761,animal,0.595777884428571,0,1,1
13,3,tool,0,0,animals,1,woodchipper.jpg,13,(unused),106.781165773856,113.986427635304,7.14293135822057,tool,0.786938280499271,0,2,1
14,3,animal,0,0,animals,1,cockatiel.jpg,20,(unused),116.538413438258,122.6762627515,6.08302602894098,animal,0.839457787643369,0,1,1
15,3,animal,0,0,animals,1,mahimahi.jpg,39,(unused),125.228254327697,129.864879392807,4.59277899275225,animal,0.5131310323859,0,1,1
16,3,tool,0,0,animals,1,blender.jpg,24,(unused),132.416965906769,136.753409627919,4.28592819091744,tool,0.60186833446005,0,2,1
17,3,animal,0,0,animals,1,rat.jpg,48,(unused),139.322107043302,147.211208508679,7.83455507182325,animal,0.973597792622058,0,1,1
18,3,animal,0,0,animals,1,salamander.jpg,9,(unused),149.763215159455,156.16794158474,6.35589617948338,animal,1.08116452488957,0,1,1
19,3,tool,0,0,animals,1,plunger.jpg,30,(unused),158.719897880012,166.375464953542,7.60483021374028,tool,1.15303241257607,0,2,1
20,3,animal,0,0,animals,1,tragopan.jpg,55,(unused),168.927531581892,176.549728351955,7.57360926994293,animal,0.594129623714252,0,1,1
21,3,animal,0,0,animals,1,panda.jpg,18,(unused),179.101765472621,186.60721445127,7.45869890726702,animal,0.650210579969098,0,1,1
22,3,tool,0,0,animals,1,edger.jpg,40,(unused),189.175933355945,196.964959191847,7.73698336001289,tool,0.748800882461182,0,2,1
23,3,animal,0,0,animals,1,emu.jpg,26,(unused),199.533654041345,204.370503493143,4.77331171663089,animal,1.21556400504141,0,1,1
24,3,tool,0,0,animals,1,anvil.jpg,6,(unused),206.922482881385,212.760080930286,5.79446359519039,tool,0.70230928188721,0,2,1
25,3,animal,0,0,animals,1,flounder.jpg,29,(unused),215.328758460056,219.481765100568,4.10387327108242,animal,0.583877307361945,0,1,1
26,3,tool,0,0,animals,1,vegetablepeeler.jpg,3,(unused),222.050459950065,229.839458844169,7.74226033108083,tool,0.894631703365121,0,2,1
27,3,tool,0,0,animals,1,compass.jpg,32,(unused),232.391460042438,236.978127957836,4.5456872246555,tool,0.820249568599138,0,2,1
28,3,tool,0,0,animals,1,blower.jpg,27,(unused),239.530163154087,245.250949905907,5.68332282210805,tool,0.811711584513432,0,2,1
29,3,animal,0,0,animals,1,squirel.jpg,46,(unused),247.802945651669,252.606449175913,4.76344066615717,animal,0.808502944662905,0,1,1
30,3,tool,0,0,animals,1,television.jpg,54,(unused),255.158437865489,261.696550566879,6.4898587996745,tool,0.728830274680149,0,2,1
31,3,animal,0,0,animals,1,frog.jpg,5,(unused),264.265253114034,271.420487905389,7.10939085845651,animal,0.434344234379751,0,1,1
32,3,tool,0,0,animals,1,bucket.jpg,22,(unused),273.989134323797,280.960944543206,6.93128171369609,tool,0.608212807157543,0,2,1
33,3,tool,0,0,animals,1,abacus.jpg,12,(unused),283.512942854853,288.266353878924,4.69919633334865,tool,0.62802625445056,0,2,1
34,3,tool,0,0,animals,1,viceclamp.jpg,4,(unused),290.818392924004,297.389756615185,6.51103351539708,tool,0.536062672063963,0,2,1
35,3,animal,0,0,animals,1,leopard.jpg,50,(unused),299.941843770618,305.562608776558,5.577175242672,animal,0.667517798575318,0,1,1
36,3,animal,0,0,animals,1,herculesbeetle.jpg,28,(unused),308.131211895648,314.585971485004,6.40834926380689,animal,0.588546256811242,0,1,1
37,3,tool,0,0,animals,1,flashlight.jpg,51,(unused),317.137972362537,325.027096920884,7.83968447383242,tool,0.634805965480155,0,2,1
38,3,tool,0,0,animals,1,workbench.jpg,11,(unused),327.595819353652,334.450782995053,6.8092619677027,tool,0.53853041246748,0,2,1
39,3,animal,0,0,animals,1,partridge.jpg,33,(unused),337.002766232124,341.722886174442,4.66845115186796,animal,0.612745764673491,0,1,1
40,3,tool,0,0,animals,1,floorbuffer.jpg,56,(unused),344.291574929962,349.645432353967,5.31032396524621,tool,0.695528287915295,0,2,1
41,3,tool,0,0,animals,1,washboard.jpg,59,(unused),352.197431627821,358.185187542829,5.92639798917368,tool,0.557096197923784,0,2,1
42,3,animal,0,0,animals,1,racoon.jpg,23,(unused),360.737168214013,367.275374249489,6.48274912501878,animal,0.729313623366579,0,1,1
43,3,tool,0,0,animals,1,italiangardeningtool.jpg,2,(unused),369.827248115688,377.399452134378,7.52583606484827,tool,0.580857580833253,0,2,1
44,3,tool,0,0,animals,1,spraybottle.jpg,49,(unused),379.968175850088,385.071836663115,5.05418131280258,tool,0.59954684953027,0,2,1
45,3,tool,0,0,animals,1,nailgun.jpg,25,(unused),387.623838823591,394.412125042989,6.73246541491959,tool,0.635628011055815,0,2,1
46,3,animal,0,0,animals,1,quail.jpg,47,(unused),396.980830476765,403.952572379472,6.91451264056849,animal,0.590584852860957,0,1,1
47,3,animal,0,0,animals,1,phasmagigas.jpg,36,(unused),406.504574860684,411.574916046481,5.01796751302851,animal,1.09956769735072,0,1,1
48,3,animal,0,0,animals,1,mountainsheep.jpg,7,(unused),414.126929432707,421.182114574176,7.00412101275972,animal,0.494727859925661,0,1,1
49,3,tool,0,0,animals,1,pressuregauge.jpg,38,(unused),423.734114489502,427.837000725835,4.04236180243267,tool,0.750153424868586,0,2,1
50,3,animal,0,0,animals,1,beta.jpg,17,(unused),430.405723158603,435.809648386133,5.34757457394696,animal,0.481849039000736,0,1,1
51,3,animal,0,0,animals,1,firebug.jpg,15,(unused),438.361650546609,443.098271378007,4.69458828978432,animal,0.512469675391912,0,1,1
52,3,animal,0,0,animals,1,porcupine.jpg,60,(unused),445.650461168862,453.005791731894,7.30380939480973,animal,0.856398405355321,0,1,1
53,3,tool,0,0,animals,1,monkeywrench.jpg,16,(unused),455.557823400053,462.77975357461,7.18011421529684,tool,0.513790464965496,0,2,1
54,3,tool,0,0,animals,1,sawblade.jpg,34,(unused),465.331741622716,470.235352529268,4.83835786024741,tool,0.56749252460213,0,2,1
55,3,tool,0,0,animals,1,loom.jpg,14,(unused),472.80400472092,479.258700804608,6.39509733337661,tool,1.21553096926527,0,2,1
56,3,animal,0,0,animals,1,yak.jpg,53,(unused),481.810702323613,486.213884406547,4.33851032768167,animal,0.588612007628399,0,1,1
57,3,animal,0,0,animals,1,caterpillarpeacockmoth.jpg,1,(unused),488.765884321873,493.435761659715,4.62565883687188,animal,0.530156645055285,0,1,1
58,3,animal,0,0,animals,1,seahorse.jpg,42,(unused),496.004666911826,500.757902172739,4.71883020686706,animal,1.13221121374227,0,1,1
59,3,tool,0,0,animals,1,electricbreaker.jpg,41,(unused),503.310094208743,511.349279129547,7.98393047580858,tool,0.513234950750302,0,2,1
60,3,tool,0,0,animals,1,shovel.jpg,52,(unused),513.901294760922,519.105079955249,5.15280709693579,tool,0.600771097661891,0,2,1
