trial,phase,object,toShock,seenBefore,shockedCategory,responseSide,filename,num,name,onsetFixationCross,onsetStimulus,interTrialTime,response,reactionTime,wasShocked,buttonPressed,isResponseCorrect
1,2,animal,1,0,animals,2,highlandcow.jpg,178,(unused),0.0314791330911248,8.58753410975442,8.42384283219251,1,1.1059083207565,1,1,1
2,2,tool,0,0,animals,2,electricdrill.jpg,157,(unused),13.1911676602485,20.246413100027,7.0049509736003,0,1.26352168799349,0,2,1
3,2,animal,0,0,animals,2,fly.jpg,147,(unused),24.5997894204957,32.6890373337901,8.03680948050767,1,0.552367591171787,0,1,0
4,2,animal,0,0,animals,2,mink.jpg,134,(unused),37.0423796562754,44.3643800078025,7.27239714084141,0,1.30254175065056,0,2,1
5,2,animal,1,0,animals,2,dog.jpg,130,(unused),48.7177547245919,56.423359131757,7.64583794631218,1,2.01807132376598,1,1,1
6,2,tool,0,0,animals,2,faxmachine.jpg,174,(unused),60.993541232654,70.6172865146309,9.5760770014002,0,1.00782029035508,0,2,1
7,2,animal,0,0,animals,2,giraffe.jpg,171,(unused),74.970650647143,81.2250841765963,6.21553170818759,1,1.23932442527985,0,1,0
8,2,animal,1,0,animals,2,penguin.jpg,164,(unused),85.5785400395162,92.7171071592329,7.09693079565868,1,1.70379236325607,1,1,1
9,2,tool,0,0,animals,2,saw.jpg,163,(unused),97.270630889825,104.25904270932,6.93725616432773,0,1.79632332708024,0,2,1
10,2,animal,0,0,animals,2,deer.jpg,142,(unused),108.612402351533,118.503021858935,9.84237962735117,1,0.946896545907293,0,1,0
11,2,animal,1,0,animals,2,beetle.jpg,125,(unused),122.873026721287,131.846277685419,8.92987173682863,0,0.818184351022865,1,2,0
12,2,animal,1,0,animals,2,prairiedog.jpg,152,(unused),136.399678253507,143.488263206127,7.02939924534675,1,1.25967382191084,1,1,1
13,2,tool,0,0,animals,2,typewriter.jpg,136,(unused),148.041788219662,157.065060801378,8.96916849527008,0,1.29443259018444,0,2,1
14,2,tool,0,0,animals,2,wateringcan.jpg,123,(unused),161.435111849672,168.373486977003,6.88555083263329,0,0.661453006934607,0,2,1
15,2,tool,0,0,animals,2,ladder.jpg,158,(unused),172.726837959353,182.333887986422,9.55217237591411,1,2.619700276191,0,1,0
16,2,animal,1,0,animals,2,chimp.jpg,141,(unused),186.687250515257,194.109356645415,7.37250139938873,1,0.738626825152096,1,1,1
17,2,animal,0,0,animals,2,palmcockatoo.jpg,160,(unused),198.66289939466,204.984124432774,6.26679703478753,0,2.3563650483793,0,2,1
18,2,animal,1,0,animals,2,lemur.jpg,127,(unused),209.337471887031,217.810313592421,8.42457178120823,1,0.966646487531762,1,1,1
19,2,tool,0,0,animals,2,ruler.jpg,166,(unused),222.363851114647,232.121015708506,9.70408541121213,0,0.830512789501881,0,2,1
20,2,animal,0,0,animals,2,bluejay.jpg,139,(unused),236.474378878813,243.546195769524,7.01997938270507,1,1.01179805438915,0,1,0
21,2,tool,0,0,animals,2,crutches.jpg,121,(unused),247.899531356559,254.954673840182,7.00351829754818,0,0.973787667686338,0,2,1
22,2,animal,1,0,animals,2,octopus.jpg,170,(unused),259.308064914494,266.296470960746,6.93725719323019,0,2.1984652641695,1,2,0
23,2,animal,0,0,animals,2,duck.jpg,149,(unused),270.866659797091,277.454804700345,6.53949309485474,1,1.08957389349962,0,1,0
24,2,tool,0,0,animals,2,camera.jpg,133,(unused),281.808155041223,290.097544270662,8.24261865252991,0,0.709309979343743,0,2,1
25,2,tool,0,0,animals,2,chainsaw.jpg,179,(unused),294.467574150398,303.924513459508,9.40046063128838,0,0.80094705279771,0,2,1
26,2,tool,0,0,animals,2,glove.jpg,150,(unused),308.277867649214,316.150297273389,7.81512926492419,0,0.814645994882085,0,2,1
27,2,animal,1,0,animals,2,springhare.jpg,169,(unused),320.503649538681,328.24261558945,7.70149183824628,1,0.973834495096526,1,1,1
28,2,tool,0,0,animals,2,lantern.jpg,140,(unused),332.796159526391,342.203070482465,9.35789289656795,0,0.645939983782228,0,2,1
29,2,animal,1,0,animals,2,lobsterspiny.jpg,155,(unused),346.556404465822,355.096011795531,8.49371932004928,0,1.89263736837529,1,2,0
30,2,tool,0,0,animals,2,dremel.jpg,165,(unused),359.649489981655,369.706895576312,9.99684602628996,0,0.71325214171884,0,2,1
31,2,tool,0,0,animals,2,drill.jpg,124,(unused),374.060263557654,380.231402669702,6.13000874090646,0,0.60113545294189,0,2,1
32,2,tool,0,0,animals,2,hairbrush.jpg,131,(unused),384.584666411944,391.606540265315,6.96100767343393,0,0.566433134150429,0,2,1
33,2,animal,1,0,animals,2,waterbuffalo.jpg,173,(unused),395.959924924911,402.147767310262,6.14030444335757,1,1.70770630088919,1,1,1
34,2,tool,0,0,animals,2,beadingtool.jpg,154,(unused),406.701239081671,414.807219134478,8.0600327450842,0,0.756686810422252,0,2,1
35,2,animal,1,0,animals,2,brown_bear.jpg,129,(unused),419.160550231214,427.816853393155,8.61653825124324,1,1.09865873193849,1,1,1
36,2,tool,0,0,animals,2,pruner.jpg,135,(unused),432.370378085954,441.343631615971,8.91318390984762,0,0.803396190531203,0,2,1
37,2,tool,0,0,animals,2,measuringdevice.jpg,145,(unused),445.696964316387,455.354039489133,9.59633759160646,0,0.568559291044949,0,2,1
38,2,tool,0,0,animals,2,corkscrew.jpg,151,(unused),459.690738515894,468.497169074051,8.75145968135758,0,0.525963987640353,0,2,1
39,2,animal,0,0,animals,2,crab.jpg,143,(unused),472.850537376127,481.723691221492,8.82172154936682,1,1.57497817442163,0,1,0
40,2,animal,1,0,animals,2,moth.jpg,159,(unused),486.077051825912,495.617388829316,9.48916772024012,0,1.25188539713417,1,2,0
41,2,tool,0,0,animals,2,oven.jpg,128,(unused),500.170816980673,507.643041911329,7.41686269531622,0,0.767689006821456,0,2,1
42,2,tool,0,0,animals,2,caulkinggun.jpg,156,(unused),511.979618737791,519.785427389445,7.75790431431739,0,0.78878924570563,0,2,1
43,2,animal,1,0,animals,2,shrimp.jpg,177,(unused),524.138783182829,532.878500075849,8.68388045191819,0,0.982263108313418,1,2,0
44,2,animal,0,0,animals,2,earthworm.jpg,137,(unused),537.432001996414,543.786623733571,6.30937664944826,1,1.9286194225715,0,1,0
45,2,tool,0,0,animals,2,telephone.jpg,138,(unused),548.139989469761,557.046410341702,8.86696955241218,0,0.523298353315113,0,2,1
46,2,animal,1,0,animals,2,gecko.jpg,122,(unused),561.399853375193,570.823448681162,9.37236933373699,1,2.27390807186566,1,1,1
47,2,tool,0,0,animals,2,carpetblower.jpg,168,(unused),575.376945469956,581.648176569002,6.21774672069191,0,0.571549830625372,0,2,1
48,2,animal,0,0,animals,2,angelfish.jpg,132,(unused),586.001558662714,594.774651953179,8.71570167154164,0,2.38867179229601,0,2,1
49,2,tool,0,0,animals,2,wheeldolly.jpg,148,(unused),599.127998765965,607.367363491197,8.19492721718336,0,0.661407462466741,0,2,1
50,2,tool,0,0,animals,2,tape.jpg,126,(unused),611.73734750573,618.258813062566,6.46641958203982,0,0.597411390835987,0,2,1
51,2,animal,1,0,animals,2,stickinsect.jpg,162,(unused),622.628851922902,630.768124340402,8.08779883472573,0,2.60968787013371,1,2,0
52,2,tool,0,0,animals,2,pencil.jpg,161,(unused),635.321669239551,644.912024011712,9.53781491924968,0,0.66629258777175,0,2,1
53,2,tool,0,0,animals,2,magnet.jpg,180,(unused),649.265373069647,655.536561190111,6.21922139925828,0,0.583303190011065,0,2,1
54,2,animal,1,0,animals,2,aardvark.jpg,175,(unused),659.906625388567,667.445355185426,7.49658641382829,1,1.01787022248573,1,1,1
55,2,animal,1,0,animals,2,otter.jpg,146,(unused),671.998998550431,678.737262831508,6.69718809604824,1,0.841428387262567,1,1,1
56,2,animal,1,0,animals,2,elephantafrican.jpg,153,(unused),683.290713755097,692.497306669662,9.16688409511886,1,1.56196753112999,1,1,1
57,2,tool,0,0,animals,2,binoculars.jpg,144,(unused),697.050975372786,703.655716744355,6.56479805761354,0,0.553969345210135,0,2,1
58,2,tool,0,0,animals,2,jumpercables.jpg,167,(unused),708.009143099591,714.497199223206,6.42447418425625,0,0.521926246030489,0,2,1
59,2,tool,0,0,animals,2,smartphone.jpg,176,(unused),718.850562393511,727.089913968581,8.20066410656291,0,0.904744499226581,0,2,1
60,2,animal,1,0,animals,2,sparrow.jpg,172,(unused),731.443284836541,738.381689150821,6.88687292118324,1,1.0954218673487,1,1,1
