trial,phase,object,toShock,seenBefore,shockedCategory,responseSide,filename,num,name,onsetFixationCross,onsetStimulus,interTrialTime,response,reactionTime,wasShocked,buttonPressed,isResponseCorrect
1,1,tool,0,0,animals,2,eraser.jpg,117,(unused),0.0282554396235355,6.19919954437319,5.99748490638695,tool,1.40844448519601,0,1,1
2,1,animal,0,0,animals,2,catfish.jpg,87,(unused),8.80137631335856,13.8885336714211,5.04830819999014,animal,0.620309332307443,0,2,1
3,1,tool,0,0,animals,2,fishingpole.jpg,120,(unused),16.4404748921152,22.1612876235249,5.66910304108404,tool,0.767898747004438,0,1,1
4,1,animal,0,0,animals,2,starfish.jpg,105,(unused),24.7132625214672,32.6858296771061,7.92430636078265,animal,0.418765118251031,0,2,1
5,1,animal,0,0,animals,2,baboon.jpg,113,(unused),35.2210477388871,41.6925234309711,6.42454783418052,animal,0.500443027773144,0,2,1
6,1,tool,0,0,animals,2,airhorn.jpg,89,(unused),44.244533609839,50.7492185960728,6.45709203875016,tool,0.831129222538948,0,1,1
7,1,animal,0,0,animals,2,shark.jpg,110,(unused),53.3012900354588,58.705189924869,5.35861811988523,animal,0.507477082204787,0,2,1
8,1,tool,0,0,animals,2,paintgun.jpg,94,(unused),61.2572164612557,67.7785944572479,6.47571297461923,tool,0.437429690300633,0,1,1
9,1,tool,0,0,animals,2,thermometer.jpg,79,(unused),70.3306495391134,77.1522358208622,6.76871023371572,tool,0.452172306322609,0,1,1
10,1,animal,0,0,animals,2,kangaroo.jpg,115,(unused),79.7209399716958,86.7093591681114,6.94072752518134,animal,0.516448059473987,0,2,1
11,1,tool,0,0,animals,2,avocadoslicer.jpg,76,(unused),89.2614222683678,97.1169917794905,7.8100806886125,tool,1.2202589126573,0,1,1
12,1,tool,0,0,animals,2,reflexhammer.jpg,93,(unused),99.6691767593093,104.339257122845,4.6272114019016,tool,0.439152040957197,0,1,1
13,1,animal,0,0,animals,2,cheetah.jpg,67,(unused),106.874552802663,110.944142504737,4.0156131522253,animal,0.503650384680441,0,2,1
14,1,animal,0,0,animals,2,crow.jpg,75,(unused),113.496150759192,120.517905298884,6.97789480105647,animal,0.467260354684186,0,2,1
15,1,tool,0,0,animals,2,mixer.jpg,116,(unused),123.086620675467,127.773302318352,4.63200060757637,tool,1.14018660600232,0,1,1
16,1,animal,0,0,animals,2,ram.jpg,97,(unused),130.325387870107,137.664034724716,7.29501547536766,animal,0.614846241287523,0,2,1
17,1,tool,0,0,animals,2,mallet.jpg,82,(unused),140.216072807589,147.121157173906,6.86216394698102,tool,0.806109593513611,0,1,1
18,1,tool,0,0,animals,2,curlingiron.jpg,99,(unused),149.673125336398,153.942898370993,4.21950964443231,tool,0.351536351596224,0,1,1
19,1,animal,0,0,animals,2,rooster.jpg,106,(unused),156.494864929808,162.315740782002,5.77572545602242,animal,0.469129923025321,0,2,1
20,1,tool,0,0,animals,2,magnifyingglass.jpg,74,(unused),164.867767639125,170.788794493685,5.87694597951737,tool,0.417415462463396,0,1,1
21,1,animal,0,0,animals,2,macaw.jpg,81,(unused),173.357431931494,180.629416759411,7.21116621471391,animal,0.436199348190712,0,2,1
22,1,tool,0,0,animals,2,clippers.jpg,61,(unused),183.181451955665,187.918186006762,4.68820788878714,tool,0.531724700420455,0,1,1
23,1,animal,0,0,animals,2,pelican.jpg,92,(unused),190.486873800073,196.691372952049,6.16272762726574,animal,0.356983085093816,0,2,1
24,1,animal,0,0,animals,2,wasp.jpg,104,(unused),199.243346567047,206.732227943594,7.43582754692596,animal,0.464442691642034,0,2,1
25,1,tool,0,0,animals,2,stove.jpg,101,(unused),209.284211501399,217.156644012195,7.81837472342572,tool,0.459456213859085,0,1,1
26,1,animal,0,0,animals,2,seaslug.jpg,119,(unused),219.708637512807,225.062534708039,5.30264504176059,animal,0.466903055124931,0,2,1
27,1,tool,0,0,animals,2,level.jpg,100,(unused),227.631271894646,232.217872134814,4.53904130776007,tool,0.395844704322371,0,1,1
28,1,tool,0,0,animals,2,pliers2.jpg,70,(unused),234.786559928127,242.125304607122,7.29942171541793,tool,0.355806626581398,0,1,1
29,1,tool,0,0,animals,2,ducttape.jpg,83,(unused),244.677240696044,251.248723059431,6.52249606992101,tool,0.350759529752395,0,1,1
30,1,animal,0,0,animals,2,cow.jpg,80,(unused),253.817416946722,261.589763885235,7.73163233937874,animal,0.371268011287611,0,2,1
31,1,animal,0,0,animals,2,dolphin.jpg,86,(unused),264.141780799553,269.178770926026,4.9995336709952,tool,0.406451754348382,0,1,0
32,1,animal,0,0,animals,2,orangutan.jpg,73,(unused),271.730752238682,278.335569945344,6.5595810550626,animal,0.473020126217307,0,2,1
33,1,tool,0,0,animals,2,keys.jpg,72,(unused),280.88761668808,288.142819662455,7.20955185184695,tool,0.536161437232295,0,1,1
34,1,animal,0,0,animals,2,hedgehog.jpg,108,(unused),290.694892064048,297.583193614611,6.83285552600152,animal,0.525175277618473,0,2,1
35,1,animal,0,0,animals,2,dragonfly.jpg,68,(unused),300.13526409179,305.422456602482,5.22842261874932,animal,0.606238336820752,0,2,1
36,1,tool,0,0,animals,2,carjack.jpg,88,(unused),307.974404558627,313.26139308142,5.27104173470889,tool,0.640250753140208,0,1,1
37,1,animal,0,0,animals,2,malaysianjunglenymph.jpg,85,(unused),315.796703515081,321.200875067621,5.3619545307518,animal,0.652456670586616,0,2,1
38,1,tool,0,0,animals,2,gardenhose.jpg,114,(unused),323.769534636194,329.50705833856,5.67898614026352,tool,0.572603426409842,0,1,1
39,1,animal,0,0,animals,2,flea.jpg,77,(unused),332.075731378032,337.346065700087,5.21204693075955,animal,0.79693238319669,0,2,1
40,1,tool,0,0,animals,2,padlock.jpg,84,(unused),339.898221492958,347.387016591603,7.4389468954643,tool,0.716386029191199,0,1,1
41,1,animal,0,0,animals,2,seal.jpg,107,(unused),349.939059164775,357.494545797796,7.51644767872585,animal,0.807308182789711,0,2,1
42,1,tool,0,0,animals,2,shoehorn.jpg,102,(unused),360.04660601143,364.599871229057,4.51171559976055,tool,0.775240066228434,0,1,1
43,1,animal,0,0,animals,2,caiman.jpg,64,(unused),367.151872748062,373.940189116614,6.74094972133648,animal,0.78337584775727,0,2,1
44,1,animal,0,0,animals,2,prayingmantis.jpg,96,(unused),376.508853175486,382.179650704025,5.62126654590057,animal,0.520159612886346,0,2,1
45,1,animal,0,0,animals,2,ant.jpg,112,(unused),384.731676598942,391.586716254702,6.81285655245218,animal,0.532489013574377,0,2,1
46,1,tool,0,0,animals,2,burnisher.jpg,95,(unused),394.15531809085,400.843373123964,6.63704175903939,tool,0.55519966635984,0,1,1
47,1,animal,0,0,animals,2,manatee.jpg,65,(unused),403.395563556289,410.901133452293,7.45159987734032,animal,0.529849679574909,0,2,1
48,1,tool,0,0,animals,2,hammer.jpg,63,(unused),413.453025279692,418.273191343804,4.76448153920108,tool,0.603083259829873,0,1,1
49,1,tool,0,0,animals,2,generator.jpg,66,(unused),420.825232313297,425.028080959408,4.14158080336518,tool,0.77847051610479,0,1,1
50,1,tool,0,0,animals,2,stopwatch.jpg,111,(unused),427.596926233944,433.11759091376,5.46821123360865,tool,0.549293318616037,0,1,1
51,1,animal,0,0,animals,2,baldeagle.jpg,71,(unused),435.686290574295,440.022753218849,4.28805718156776,animal,0.723591997953918,0,2,1
52,1,animal,0,0,animals,2,stinkbug.jpg,62,(unused),442.574772699052,450.613974618847,7.97873207372258,animal,0.488634822584572,0,2,1
53,1,tool,0,0,animals,2,hoe.jpg,91,(unused),453.165989288016,460.938325321516,7.7179691312137,tool,0.579698741357788,0,1,1
54,1,animal,0,0,animals,2,goldfish.jpg,98,(unused),463.490376233816,469.194476390592,5.64892996190594,animal,0.898908692375699,0,2,1
55,1,tool,0,0,animals,2,wrench.jpg,118,(unused),471.76316674979,475.932823742212,4.1216605933352,tool,0.660823381815135,0,1,1
56,1,tool,0,0,animals,2,tubeflaring.jpg,109,(unused),478.484858296993,485.139732260697,6.60160175273319,tool,0.721273078910599,0,1,1
57,1,tool,0,0,animals,2,electricsander.jpg,103,(unused),487.691744363978,493.095640083826,5.34149862854395,tool,0.732723984539916,0,1,1
58,1,animal,0,0,animals,2,gerbil.jpg,90,(unused),495.664375346019,500.367729792315,4.6560585905687,animal,0.922902287924444,0,2,1
59,1,animal,0,0,animals,2,turtle.jpg,78,(unused),502.919714953799,507.506396981567,4.53824465636155,animal,0.568520140330293,0,2,1
60,1,tool,0,0,animals,2,lighterbic.jpg,69,(unused),510.075049493953,517.296842072899,7.18272928062478,tool,0.769474842187265,0,1,1
