trial,phase,object,toShock,seenBefore,shockedCategory,responseSide,filename,num,name,onsetFixationCross,onsetStimulus,interTrialTime,response,reactionTime,wasShocked,buttonPressed,isResponseCorrect
1,2,tool,0,0,animals,2,spoon.jpg,44,(unused),0.031638767986351,6.81972129047517,6.66088526681046,,4.30333213014546,0,,0
2,2,tool,0,0,animals,2,viceclamp.jpg,4,(unused),11.1565107547231,17.2775534891025,6.07421404634476,1,0.785048805241786,0,1,0
3,2,tool,0,0,animals,2,workbench.jpg,11,(unused),21.6476884639137,30.8043994700233,9.09197113754181,1,1.4058197169079,0,1,0
4,2,animal,1,0,animals,2,quail.jpg,47,(unused),35.1576804744109,44.5479973635656,9.32791805033481,1,2.16176429522329,1,1,1
5,2,tool,0,0,animals,2,pressuregauge.jpg,38,(unused),49.1013754864398,56.8737596458632,7.71273638324165,0,1.63944612697787,0,2,1
6,2,animal,0,0,animals,2,ferret.jpg,21,(unused),61.2270926092824,69.5665258901968,8.28055693502111,1,1.38716161343154,0,1,0
7,2,animal,0,0,animals,2,mahimahi.jpg,39,(unused),73.9197677649427,82.0424250781284,8.05697099295783,1,1.56271995652878,0,1,0
8,2,animal,0,0,animals,2,heckcattle.jpg,37,(unused),86.395735910849,94.7684973826495,8.32051615566808,0,1.04724306081789,0,2,1
9,2,tool,0,0,animals,2,television.jpg,54,(unused),99.1384607643613,105.826703044837,6.62091308261064,1,1.19429289434038,0,1,0
10,2,animal,1,0,animals,2,emu.jpg,26,(unused),110.180087005084,116.518033038893,6.28158686247493,0,1.87142748843962,1,2,0
11,2,animal,1,0,animals,2,phasmagigas.jpg,36,(unused),121.071485251498,129.427466521871,8.29959391402783,0,2.16249974003949,1,2,0
12,2,tool,0,0,animals,2,vegetablepeeler.jpg,3,(unused),133.98105023573,142.27041681985,8.23725125507958,0,1.63798646306304,0,2,1
13,2,animal,1,0,animals,2,caterpillarpeacockmoth.jpg,1,(unused),146.623800459362,153.545457464963,6.86497582239326,1,1.55838747132475,1,1,1
14,2,tool,0,0,animals,2,flashlight.jpg,51,(unused),158.098975428195,166.972177749929,8.81720955782584,0,0.911280707381593,0,2,1
15,2,animal,1,0,animals,2,leopard.jpg,50,(unused),171.325417058797,177.896949731567,6.52135220141897,0,1.091802420965,1,2,0
16,2,tool,0,0,animals,2,compass.jpg,32,(unused),182.450374040247,191.273470535546,8.77322724909509,1,1.72581711254134,0,1,0
17,2,animal,1,0,animals,2,yak.jpg,53,(unused),195.626845515219,204.416680853199,8.73217549176527,1,0.581051231279162,1,1,1
18,2,animal,1,0,animals,2,porcupine.jpg,60,(unused),208.970083993384,216.475594697747,7.45167551067679,0,0.808673807286596,1,2,0
19,2,tool,0,0,animals,2,clamp.jpg,31,(unused),221.029035043165,229.85218510117,8.77454945138774,1,1.76855534069364,0,1,0
20,2,animal,1,0,animals,2,frog.jpg,5,(unused),234.205362187493,243.77914962566,9.50471675260002,0,0.618074928126134,1,2,0
21,2,tool,0,0,animals,2,loom.jpg,14,(unused),248.332571047727,257.42260514504,9.01966548673503,0,0.59413560601206,0,2,1
22,2,animal,1,0,animals,2,partridge.jpg,33,(unused),261.792616957702,268.43089196916,6.57662210352408,1,0.547241617511645,1,1,1
23,2,animal,0,0,animals,2,salamander.jpg,9,(unused),272.984299599632,279.589051734202,6.55565301251686,0,0.663523365041328,0,2,1
24,2,tool,0,0,animals,2,floorbuffer.jpg,56,(unused),283.942428638284,290.146876844591,6.13130174061123,1,0.821103562363533,0,1,0
25,2,tool,0,0,animals,2,spraybottle.jpg,49,(unused),294.500227127688,301.505289605216,6.9435683232768,1,1.289130315492,0,1,0
26,2,animal,1,0,animals,2,tragopan.jpg,55,(unused),305.858667792237,315.515718937565,9.58269395212479,1,0.801213837390605,1,1,1
27,2,animal,1,0,animals,2,flounder.jpg,29,(unused),320.085906769466,329.792961106104,9.6503488834918,1,0.713512123287728,1,1,1
28,2,animal,0,0,animals,2,firebug.jpg,15,(unused),334.346512105017,343.336452579852,8.93546677906802,0,0.80253590609118,0,2,1
29,2,tool,0,0,animals,2,edger.jpg,40,(unused),347.689760525959,356.029100793792,8.29182848557316,1,0.535380204437388,0,1,0
30,2,animal,0,0,animals,2,racoon.jpg,23,(unused),360.382489244325,369.472506342696,9.01790556773686,1,1.48250451257263,0,1,0
31,2,tool,0,0,animals,2,electricbreaker.jpg,41,(unused),373.825807874108,381.39800639225,7.51251750836302,1,0.611406210894984,0,1,0
32,2,animal,0,0,animals,2,seahorse.jpg,42,(unused),385.751365655919,392.289436712141,6.4818908977626,1,0.809169021762955,0,1,0
33,2,animal,0,0,animals,2,chinchilla.jpg,19,(unused),396.62604720639,405.982923968226,9.29463271858605,1,1.8264736245319,0,1,0
34,2,animal,1,0,animals,2,beta.jpg,17,(unused),410.336239932702,418.192023470092,7.794848088977,0,0.665790318359541,1,2,0
35,2,tool,0,0,animals,2,hourglass.jpg,10,(unused),422.745483059597,429.700513479686,6.89162883193138,1,0.548728543881225,0,1,0
36,2,tool,0,0,animals,2,sawblade.jpg,34,(unused),434.070548705985,443.39405654362,9.25276464003927,0,1.15073390592534,0,2,1
37,2,tool,0,0,animals,2,kettle.jpg,58,(unused),447.747360961645,454.085314372355,6.2819659067758,0,0.858858855208837,0,2,1
38,2,animal,1,0,animals,2,panda.jpg,18,(unused),458.438613337889,466.311088233177,7.82072318965832,0,0.866541415031406,1,2,0
39,2,tool,0,0,animals,2,blender.jpg,24,(unused),470.881226030454,479.203978216983,8.25363463299805,1,0.443130471368931,0,1,0
40,2,animal,1,0,animals,2,rat.jpg,48,(unused),483.557245429776,490.395572977588,6.78093547072949,0,3.00203549571097,1,2,0
41,2,tool,0,0,animals,2,plunger.jpg,30,(unused),494.965699228414,504.906330902704,9.8745957424231,0,1.94680689361121,0,2,1
42,2,tool,0,0,animals,2,shovel.jpg,52,(unused),509.259714542216,515.530952235222,6.22100944503246,0,0.684533737282436,0,2,1
43,2,animal,0,0,animals,2,armadillo.jpg,57,(unused),519.867505317948,529.224371816272,9.30322649457151,0,0.472620108589126,0,2,1
44,2,tool,0,0,animals,2,abacus.jpg,12,(unused),533.57775449358,540.165859852384,6.51342090491116,0,0.528583834769961,0,2,1
45,2,tool,0,0,animals,2,nailgun.jpg,25,(unused),544.51921815385,552.308226637605,7.72792602085785,1,0.462637880502371,0,1,0
46,2,animal,1,0,animals,2,mountainsheep.jpg,7,(unused),556.66156537425,564.050268646803,7.33016428434016,1,0.5960455815366,1,1,1
47,2,tool,0,0,animals,2,anvil.jpg,6,(unused),568.620449743273,576.226095765633,7.54325714345039,1,0.60167672180296,0,1,0
48,2,animal,1,0,animals,2,squirel.jpg,46,(unused),580.579308453515,586.650374938304,6.00467946958677,0,0.839796305194341,1,2,0
49,2,tool,0,0,animals,2,monkeywrench.jpg,16,(unused),591.203890977127,598.192430161775,6.91834135858725,1,0.72318869114315,0,1,0
50,2,animal,1,0,animals,2,herculesbeetle.jpg,28,(unused),602.545634189818,610.7349010575,8.13096148118157,0,1.30220186083397,1,2,0
51,2,tool,0,0,animals,2,italiangardeningtool.jpg,2,(unused),615.27173215312,621.642962116419,6.32357563802465,1,1.01654104618638,0,1,0
52,2,animal,1,0,animals,2,hippo.jpg,45,(unused),626.013059565262,633.535238213885,7.45201335635641,0,0.931721454680883,1,2,0
53,2,tool,0,0,animals,2,bucket.jpg,22,(unused),638.088702935146,646.0778188009,7.9284582971174,0,0.571668456468615,0,2,1
54,2,tool,0,0,animals,2,blower.jpg,27,(unused),650.431184479266,658.637227058088,8.15117873828092,0,0.383651492164972,0,2,1
55,2,tool,0,0,animals,2,scale.jpg,43,(unused),663.007167026162,672.080524198642,9.01576859124488,0,0.469873977532188,0,2,1
56,2,animal,1,0,animals,2,cat.jpg,8,(unused),676.433827012993,685.490498921535,8.99262027751249,0,0.443393473876313,1,2,0
57,2,animal,1,0,animals,2,cockatiel.jpg,20,(unused),690.043961718387,698.766954006961,8.65786751557059,0,0.70246248990361,1,2,0
58,2,tool,0,0,animals,2,woodchipper.jpg,13,(unused),703.337172308664,713.294460701497,9.89826414238984,1,0.910507415863322,0,1,0
59,2,tool,0,0,animals,2,washboard.jpg,59,(unused),717.647773458626,726.454220291547,8.7463641765674,1,0.467186861672417,0,1,0
60,2,animal,0,0,animals,2,rhino.jpg,35,(unused),730.82422344437,737.045389950295,6.17412138543942,0,0.44347333683254,0,2,1
