trial,phase,object,toShock,seenBefore,shockedCategory,responseSide,filename,num,name,onsetFixationCross,onsetStimulus,interTrialTime,response,reactionTime,wasShocked,buttonPressed,isResponseCorrect
1,1,animal,0,0,animals,1,partridge.jpg,33,(unused),0.0256391036027708,4.94597821005482,4.75104831529327,animal,1.59067167042349,0,1,1
2,1,animal,0,0,animals,1,beta.jpg,17,(unused),7.54829660922906,13.6365878338297,6.0228361255073,animal,1.1313749968599,0,1,1
3,1,animal,0,0,animals,1,leopard.jpg,50,(unused),16.2054494274776,23.8447026799686,7.58019750062041,animal,0.939674393781843,0,1,1
4,1,tool,0,0,animals,1,monkeywrench.jpg,16,(unused),26.3970352075094,31.8847704704685,5.44877668505325,tool,2.24890087454241,0,2,1
5,1,animal,0,0,animals,1,mountainsheep.jpg,7,(unused),34.4535778599411,38.873737836027,4.37717732331664,animal,1.08412018174886,0,1,1
6,1,tool,0,0,animals,1,clamp.jpg,31,(unused),41.4426052029003,48.8318524416145,7.33888664999949,tool,1.8224400640006,0,2,1
7,1,tool,0,0,animals,1,anvil.jpg,6,(unused),51.3840608448013,58.5230592735215,7.08093390568026,tool,2.33257544293747,0,2,1
8,1,animal,0,0,animals,1,quail.jpg,47,(unused),61.0752792231597,67.2801626665428,6.16085646863567,animal,1.55878999332663,0,1,1
9,1,animal,0,0,animals,1,yak.jpg,53,(unused),69.832375880751,73.9689331971758,4.08105481311585,animal,1.53325694016576,0,1,1
10,1,animal,0,0,animals,1,tragopan.jpg,55,(unused),76.5378541267551,81.8420004895747,5.24413730941802,animal,1.70447061013829,0,1,1
11,1,tool,0,0,animals,1,shovel.jpg,52,(unused),84.3942178733346,89.4481965720561,5.00191754228249,tool,1.88659439387175,0,2,1
12,1,tool,0,0,animals,1,nailgun.jpg,25,(unused),92.0004457085579,99.2895637232355,7.25061999448958,tool,1.16846476506771,0,2,1
13,1,tool,0,0,animals,1,kettle.jpg,58,(unused),101.858393884876,108.547076213449,6.63578076779666,,2.50299978465318,0,,0
14,1,animal,0,0,animals,1,chinchilla.jpg,19,(unused),111.065896127614,115.886357466085,4.76640801501316,animal,0.911316950282071,0,1,1
15,1,tool,0,0,animals,1,spoon.jpg,44,(unused),118.438565227802,122.508437617061,4.03250359898654,tool,1.59651738224738,0,2,1
16,1,animal,0,0,animals,1,frog.jpg,5,(unused),125.060616191915,132.766769263864,7.65013605524601,animal,1.32366703484377,0,1,1
17,1,animal,0,0,animals,1,flounder.jpg,29,(unused),135.318957781496,139.438832079127,4.06457103807815,animal,1.10283056499111,0,1,1
18,1,tool,0,0,animals,1,woodchipper.jpg,13,(unused),141.991038557905,149.263515249308,7.21800670279613,tool,1.22151974766621,0,2,1
19,1,animal,0,0,animals,1,ferret.jpg,21,(unused),151.815718200003,158.904668213811,7.02875974710424,animal,1.22871735652416,0,1,1
20,1,animal,0,0,animals,1,porcupine.jpg,60,(unused),161.473546485666,168.746018686782,7.22173844373939,animal,2.20675536423551,0,1,1
21,1,animal,0,0,animals,1,heckcattle.jpg,37,(unused),171.298207204414,175.968529712842,4.61080134446125,animal,1.12642894605051,0,1,1
22,1,tool,0,0,animals,1,bucket.jpg,22,(unused),178.520761529666,185.709775658353,7.13293012394435,tool,1.60363929770119,0,2,1
23,1,tool,0,0,animals,1,abacus.jpg,12,(unused),188.262002343422,193.23256915552,4.9192800781366,tool,1.55513361700741,0,2,1
24,1,animal,0,0,animals,1,salamander.jpg,9,(unused),195.784761201234,202.673577853526,6.83478477972296,animal,1.27146905553673,0,1,1
25,1,tool,0,0,animals,1,viceclamp.jpg,4,(unused),205.225789784795,211.58085439521,6.29136463042978,tool,1.11950332027345,0,2,1
26,1,animal,0,0,animals,1,hippo.jpg,45,(unused),214.133033932268,218.186312146263,4.00407096518368,animal,1.24937748640286,0,1,1
27,1,animal,0,0,animals,1,armadillo.jpg,57,(unused),220.755077519481,225.975889934226,5.17696881461828,animal,1.05902878035931,0,1,1
28,1,tool,0,0,animals,1,flashlight.jpg,51,(unused),228.528060169975,234.199207608219,5.62431517008949,tool,1.43704035952533,0,2,1
29,1,tool,0,0,animals,1,washboard.jpg,59,(unused),236.751414086997,243.47342556866,6.66830027255058,tool,1.41517971942221,0,2,1
30,1,animal,0,0,animals,1,panda.jpg,18,(unused),246.042315386967,253.314579110486,7.21223761668001,animal,1.84145322086124,0,1,1
31,1,tool,0,0,animals,1,hourglass.jpg,10,(unused),255.866915486843,261.3544634407,5.42417462396409,tool,1.1517888024382,0,2,1
32,1,animal,0,0,animals,1,mahimahi.jpg,39,(unused),263.923496948182,268.994172778027,5.02664967197932,animal,0.975297441910243,0,1,1
33,1,tool,0,0,animals,1,television.jpg,54,(unused),271.546385030031,278.535280871737,6.94098465082334,tool,1.71967023064462,0,2,1
34,1,animal,0,0,animals,1,herculesbeetle.jpg,28,(unused),281.087471313776,286.4917170723,5.35474061230569,animal,1.79950849051738,0,1,1
35,1,tool,0,0,animals,1,blender.jpg,24,(unused),289.060611701628,293.363968415457,4.24951063416846,tool,1.47551409824428,0,2,1
36,1,tool,0,0,animals,1,floorbuffer.jpg,56,(unused),295.916189327299,303.17197305713,7.19775200584195,tool,1.19886047799855,0,2,1
37,1,animal,0,0,animals,1,seahorse.jpg,42,(unused),305.74079712481,311.445441139691,5.65874166478419,animal,1.46460719183005,0,1,1
38,1,tool,0,0,animals,1,sawblade.jpg,34,(unused),313.997548190692,321.987254208414,7.93110289942273,tool,1.15829266200035,0,2,1
39,1,tool,0,0,animals,1,pressuregauge.jpg,38,(unused),324.539454593232,329.877058403048,5.29381047781737,tool,0.900773757091429,0,2,1
40,1,tool,0,0,animals,1,workbench.jpg,11,(unused),332.445857132681,338.834295157584,6.35039951835205,tool,0.825875454067045,0,2,1
41,1,animal,0,0,animals,1,squirel.jpg,46,(unused),341.38648335448,345.856677312414,4.413704737439,animal,1.07692161068644,0,1,1
42,1,tool,0,0,animals,1,blower.jpg,27,(unused),348.425499776421,354.44700472167,5.97771019798111,tool,1.12269046163146,0,2,1
43,1,tool,0,0,animals,1,spraybottle.jpg,49,(unused),356.999167901255,363.95481733944,6.90159856984253,tool,1.09330987423164,0,2,1
44,1,animal,0,0,animals,1,rat.jpg,48,(unused),366.506899052394,371.110512578549,4.55535501935969,animal,1.32288989450853,0,1,1
45,1,tool,0,0,animals,1,electricbreaker.jpg,41,(unused),373.66272130247,378.499865659736,4.79113896724036,tool,0.922735107910739,0,2,1
46,1,animal,0,0,animals,1,firebug.jpg,15,(unused),381.052055460306,387.457103055741,6.35478888124673,animal,0.979807614174206,0,1,1
47,1,tool,0,0,animals,1,scale.jpg,43,(unused),390.009348022691,394.16260311171,4.09458253979275,tool,1.1816703775412,0,2,1
48,1,animal,0,0,animals,1,phasmagigas.jpg,36,(unused),396.731476572544,401.601983439315,4.81443135389826,animal,1.43858662182674,0,1,1
49,1,animal,0,0,animals,1,racoon.jpg,23,(unused),404.154184144867,411.726705001447,7.52199357687326,animal,1.50324097719658,0,1,1
50,1,tool,0,0,animals,1,vegetablepeeler.jpg,3,(unused),414.279062225564,422.118774385357,7.79105468106381,,2.50214213989238,0,,0
51,1,animal,0,0,animals,1,emu.jpg,26,(unused),424.637488136315,429.641241695268,4.95038910632242,animal,0.933292734165661,0,1,1
52,1,tool,0,0,animals,1,compass.jpg,32,(unused),432.210297974918,437.064195591891,4.8121500066374,tool,0.88961763976522,0,2,1
53,1,animal,0,0,animals,1,rhino.jpg,35,(unused),439.616338565185,446.355000350697,6.6776492342258,animal,1.06623633199479,0,1,1
54,1,tool,0,0,animals,1,italiangardeningtool.jpg,2,(unused),448.923906205742,455.929476727138,6.96158352499272,tool,1.18713922601683,0,2,1
55,1,tool,0,0,animals,1,edger.jpg,40,(unused),458.481646642153,464.736648099892,6.20968088863836,tool,1.11828805624918,0,2,1
56,1,tool,0,0,animals,1,plunger.jpg,30,(unused),467.305531182769,474.64468895252,7.27455010044994,tool,1.6176586142733,0,2,1
57,1,animal,0,0,animals,1,caterpillarpeacockmoth.jpg,1,(unused),477.213575884215,484.33589867104,7.06075471176397,animal,1.15578034658756,0,1,1
58,1,animal,0,0,animals,1,cockatiel.jpg,20,(unused),486.888154863707,491.024793054366,4.07330374867953,animal,1.26114551658793,0,1,1
59,1,tool,0,0,animals,1,loom.jpg,14,(unused),493.593563510267,500.882721937525,7.23325335404047,tool,1.49052544744382,0,2,1
60,1,animal,0,0,animals,1,cat.jpg,8,(unused),503.434900833114,509.172755649956,5.67758158325769,animal,1.31189895558646,0,1,1
