trial,phase,object,toShock,seenBefore,shockedCategory,responseSide,filename,num,name,onsetFixationCross,onsetStimulus,interTrialTime,response,reactionTime,wasShocked,buttonPressed,isResponseCorrect
1,2,animal,0,0,animals,1,frog.jpg,5,(unused),0.0327106628101319,8.70619882336905,8.56467791936346,1,0.86596665909201,0,1,0
2,2,tool,0,0,animals,1,spoon.jpg,44,(unused),13.0934132451421,20.9830731091315,7.84295184722268,1,2.14557905754555,0,1,0
3,2,tool,0,0,animals,1,edger.jpg,40,(unused),25.3366565664019,33.2930478640992,7.91290941272471,1,2.37509396866335,0,1,0
4,2,animal,1,0,animals,1,leopard.jpg,50,(unused),37.6467345979636,43.8182038935429,6.11878579532458,0,1.52031080300549,1,2,0
5,2,animal,0,0,animals,1,mahimahi.jpg,39,(unused),48.3887554386674,58.2631906648385,9.81775691824563,1,1.56485637155674,0,1,0
6,2,animal,1,0,animals,1,panda.jpg,18,(unused),62.6337008993232,70.1230411190463,7.44230630257431,1,1.55444018933485,1,1,1
7,2,tool,0,0,animals,1,clamp.jpg,31,(unused),74.6768140664171,82.2328129130547,7.50032092280351,0,1.18611095124834,0,2,1
8,2,tool,0,0,animals,1,anvil.jpg,6,(unused),86.5864900248762,94.0757930393665,7.43134909343796,0,1.15959612897132,0,2,1
9,2,tool,0,0,animals,1,shovel.jpg,52,(unused),98.4294117774607,107.069691060464,8.58187729900725,0,1.70812345926424,0,2,1
10,2,animal,1,0,animals,1,squirel.jpg,46,(unused),111.423346362322,119.663088222154,8.18744724806939,1,1.32225484056107,1,1,1
11,2,animal,0,0,animals,1,tragopan.jpg,55,(unused),124.217096268107,133.257600578621,8.99087272986254,0,1.64828204977493,0,2,1
12,2,tool,0,0,animals,1,workbench.jpg,11,(unused),137.627919013717,144.65024407776,6.97162589099339,0,1.33405082374338,0,2,1
13,2,tool,0,0,animals,1,pressuregauge.jpg,38,(unused),149.02058015327,156.626666865195,7.54654659069743,0,0.994991198831485,0,2,1
14,2,animal,1,0,animals,1,firebug.jpg,15,(unused),160.996981451475,169.954190302087,8.912712879547,0,1.21707981720465,1,2,0
15,2,animal,1,0,animals,1,racoon.jpg,23,(unused),174.524648513394,182.614467718415,8.04056047732823,1,1.13817489549729,1,1,1
16,2,animal,0,0,animals,1,armadillo.jpg,57,(unused),187.168267607505,196.926122161345,9.71667280847924,0,1.20018832081223,0,2,1
17,2,tool,0,0,animals,1,spraybottle.jpg,49,(unused),201.296375487284,210.887324159779,9.54653471423224,0,1.06945939653451,0,2,1
18,2,tool,0,0,animals,1,italiangardeningtool.jpg,2,(unused),215.241082417497,224.448451555307,9.16198772367411,0,1.03884654616922,0,2,1
19,2,tool,0,0,animals,1,viceclamp.jpg,4,(unused),228.802135723294,236.458212476406,7.60618918235461,0,0.980467045737896,0,2,1
20,2,animal,1,0,animals,1,phasmagigas.jpg,36,(unused),240.811862325772,247.800801145937,6.93271933871156,1,2.66143858983014,1,1,1
21,2,tool,0,0,animals,1,abacus.jpg,12,(unused),252.354592695923,261.495128085637,9.08995593137883,0,1.20155625458574,0,2,1
22,2,animal,1,0,animals,1,cockatiel.jpg,20,(unused),265.848887947028,275.790228124413,9.90153248568897,1,1.27098827501322,1,1,1
23,2,tool,0,0,animals,1,woodchipper.jpg,13,(unused),280.344015825582,287.866672048269,7.46879648657398,0,0.518016907968558,0,2,1
24,2,animal,1,0,animals,1,rhino.jpg,35,(unused),292.220349480827,301.52781929728,9.26386725014534,1,0.911459036669839,1,1,1
25,2,tool,0,0,animals,1,compass.jpg,32,(unused),306.081612130205,313.754408786608,7.62216173353326,0,0.518238535691125,0,2,1
26,2,animal,0,0,animals,1,hippo.jpg,45,(unused),318.091381069673,324.629906286322,6.47991792849015,1,0.76704692585372,0,1,0
27,2,animal,1,0,animals,1,chinchilla.jpg,19,(unused),328.983555173483,336.95659420915,7.93158473623774,1,1.09596331382818,1,1,1
28,2,animal,1,0,animals,1,beta.jpg,17,(unused),341.510415587469,350.817879309961,9.26925877955586,1,0.941246315753233,1,1,1
29,2,tool,0,0,animals,1,kettle.jpg,58,(unused),355.371682406399,365.279608435982,9.85220999732801,0,0.670987505249286,0,2,1
30,2,animal,1,0,animals,1,flounder.jpg,29,(unused),369.633267907391,376.972482767931,7.29014178090802,1,0.825566266641545,1,1,1
31,2,tool,0,0,animals,1,television.jpg,54,(unused),381.526266299548,388.431761480348,6.86255519301014,0,0.741642487333593,0,2,1
32,2,animal,1,0,animals,1,porcupine.jpg,60,(unused),392.785429290861,402.676694111615,9.8343372776426,1,1.88130355407884,1,1,1
33,2,tool,0,0,animals,1,sawblade.jpg,34,(unused),407.230510037441,417.005011367048,9.72274285189977,0,0.565411563435191,0,2,1
34,2,tool,0,0,animals,1,plunger.jpg,30,(unused),421.375341990066,428.964725156173,7.54137543598529,0,0.712284992838249,0,2,1
35,2,animal,1,0,animals,1,cat.jpg,8,(unused),433.31838302391,442.976132408821,9.61521937962087,1,0.665595953851152,1,1,1
36,2,tool,0,0,animals,1,monkeywrench.jpg,16,(unused),447.546606977601,456.537170960819,8.95122572563689,0,0.682814599702397,0,2,1
37,2,tool,0,0,animals,1,blower.jpg,27,(unused),460.890832677373,469.547705494171,8.60368285662448,0,0.556763271235468,0,2,1
38,2,tool,0,0,animals,1,floorbuffer.jpg,56,(unused),473.901388058483,483.592461143993,9.64060478620336,0,0.574539995577652,0,2,1
39,2,animal,1,0,animals,1,emu.jpg,26,(unused),487.946121898342,496.152521454958,8.16713601853554,1,1.17804671705562,1,1,1
40,2,tool,0,0,animals,1,blender.jpg,24,(unused),500.723196162231,510.080705733759,9.31273163359781,0,0.633290906866023,0,2,1
41,2,tool,0,0,animals,1,bucket.jpg,22,(unused),514.451024168855,520.555862741445,6.05850360234991,0,0.653529270528452,0,2,1
42,2,animal,0,0,animals,1,yak.jpg,53,(unused),524.909519005507,534.533864826863,9.5713113639087,1,0.941142397688964,0,1,0
43,2,tool,0,0,animals,1,flashlight.jpg,51,(unused),538.887545146032,546.577026745639,7.64095953758758,0,0.60041976301909,0,2,1
44,2,tool,0,0,animals,1,vegetablepeeler.jpg,3,(unused),550.930625598177,557.802783607518,6.82483177131146,0,0.620984955408858,0,2,1
45,2,animal,0,0,animals,1,seahorse.jpg,42,(unused),562.156450776563,571.497289837951,9.29741069654322,1,1.19404464639229,0,1,0
46,2,animal,0,0,animals,1,ferret.jpg,21,(unused),575.850931348215,584.624447059889,8.73614709229805,0,1.25045772197882,0,2,1
47,2,animal,1,0,animals,1,rat.jpg,48,(unused),588.994937088084,596.117131581004,7.08665032449093,0,0.67623504673611,1,2,0
48,2,tool,0,0,animals,1,scale.jpg,43,(unused),600.671112364502,607.726741564322,7.0006940422782,0,1.07200538910001,0,2,1
49,2,tool,0,0,animals,1,nailgun.jpg,25,(unused),612.080392055159,622.088392783868,9.95762477216768,0,0.577898088566144,0,2,1
50,2,animal,0,0,animals,1,salamander.jpg,9,(unused),626.442067329812,635.649253328073,9.16940719692215,0,1.11743650633616,0,2,1
51,2,tool,0,0,animals,1,loom.jpg,14,(unused),640.003081185234,647.775832906696,7.72986319979352,0,0.566312507389739,0,2,1
52,2,animal,1,0,animals,1,caterpillarpeacockmoth.jpg,1,(unused),652.129606559683,660.469532489196,8.30366283647848,1,1.50421761544385,1,1,1
53,2,animal,1,0,animals,1,herculesbeetle.jpg,28,(unused),665.023431806063,673.296526874094,8.22641935586517,0,1.01672611090544,1,2,0
54,2,animal,1,0,animals,1,heckcattle.jpg,37,(unused),677.867197411815,684.655941930858,6.73897952608008,1,1.40375161990414,1,1,1
55,2,tool,0,0,animals,1,hourglass.jpg,10,(unused),689.209727707619,698.867326667925,9.60368998412072,0,0.544868181010315,0,2,1
56,2,animal,1,0,animals,1,partridge.jpg,33,(unused),703.237834657268,710.877374646638,7.59096725442871,1,1.00829495614198,1,1,1
57,2,tool,0,0,animals,1,washboard.jpg,59,(unused),715.447700394487,723.520874427417,8.02822723983369,0,0.495266870360865,0,2,1
58,2,animal,1,0,animals,1,quail.jpg,47,(unused),727.89118324047,736.181137731413,8.23492884165251,1,0.777472730122099,1,1,1
59,2,animal,0,0,animals,1,mountainsheep.jpg,7,(unused),740.734981240432,748.724609319606,7.95138027238133,1,0.654470306328221,0,1,0
60,2,tool,0,0,animals,1,electricbreaker.jpg,41,(unused),753.07835057838,762.319098903905,9.19764716870554,0,0.52151997306828,0,2,1
