trial,phase,object,toShock,seenBefore,shockedCategory,responseSide,filename,num,name,onsetFixationCross,onsetStimulus,interTrialTime,response,reactionTime,wasShocked,buttonPressed,isResponseCorrect
1,2,tool,0,0,animals,1,hoe.jpg,91,(unused),0.0315232995426413,7.58741309636025,7.4410449756867,0,1.88263621019541,0,2,1
2,2,tool,0,0,animals,1,carjack.jpg,88,(unused),11.9911973175567,21.4989429017605,9.45824530004667,0,0.932521371112671,0,2,1
3,2,animal,0,0,animals,1,dolphin.jpg,86,(unused),25.8692340744019,32.4578279122534,6.53770094499391,1,1.03703151130321,0,1,0
4,2,tool,0,0,animals,1,paintgun.jpg,94,(unused),36.8114540272481,46.7527788093648,9.88634345113671,0,0.915633402803905,0,2,1
5,2,tool,0,0,animals,1,mallet.jpg,82,(unused),51.1231636365574,60.8475501591547,9.67933072568779,0,0.716298991587792,0,2,1
6,2,tool,0,0,animals,1,thermometer.jpg,79,(unused),65.201202895134,72.5904360215191,7.33129909096251,0,0.752927543204351,0,2,1
7,2,animal,1,0,animals,1,manatee.jpg,65,(unused),76.9441304530183,83.1156513868955,6.12680268315627,1,0.825037378182969,1,1,1
8,2,animal,0,0,animals,1,shark.jpg,110,(unused),87.6695317804106,95.5591627782715,7.83828267689254,1,0.710089245805648,0,1,0
9,2,tool,0,0,animals,1,electricsander.jpg,103,(unused),99.9128049300043,106.551393299327,6.5867544002876,0,0.928190489583358,0,2,1
10,2,tool,0,0,animals,1,eraser.jpg,117,(unused),110.921711092955,119.511909566834,8.54802271873762,0,1.12624581055661,0,2,1
11,2,tool,0,0,animals,1,burnisher.jpg,95,(unused),123.865606564212,131.621768279963,7.71085513972864,0,1.05785232929793,0,2,1
12,2,animal,1,0,animals,1,rooster.jpg,106,(unused),135.992117826332,144.298791579098,8.26116081858842,1,0.875245519009695,1,1,1
13,2,animal,1,0,animals,1,seal.jpg,107,(unused),148.852569016755,156.925675695383,8.02133142967379,1,0.804918007118431,1,1,1
14,2,tool,0,0,animals,1,gardenhose.jpg,114,(unused),161.479504771336,168.101375803246,6.5804338216937,0,0.661718594447848,0,2,1
15,2,animal,1,0,animals,1,baldeagle.jpg,71,(unused),172.455052915068,181.679133296332,9.17037896733805,1,0.70237397103665,1,1,1
16,2,tool,0,0,animals,1,fishingpole.jpg,120,(unused),186.232965900368,192.604570802606,6.32710410450905,0,0.669262276117479,0,2,1
17,2,tool,0,0,animals,1,pliers2.jpg,70,(unused),196.941684850436,206.899649672889,9.91654263502028,0,0.725800758997138,0,2,1
18,2,animal,0,0,animals,1,cheetah.jpg,67,(unused),211.253309465033,217.608185483406,6.29701072357721,1,0.688597129947084,0,1,0
19,2,tool,0,0,animals,1,shoehorn.jpg,102,(unused),221.96199602089,231.586365897353,9.57711470658005,0,0.771943265943264,0,2,1
20,2,tool,0,0,animals,1,wrench.jpg,118,(unused),235.940044292114,244.663668428175,8.6696705953429,0,0.909202029299195,0,2,1
21,2,animal,1,0,animals,1,cow.jpg,80,(unused),249.033998409723,256.272948054685,7.20192304030733,1,1.18437160978829,1,1,1
22,2,tool,0,0,animals,1,keys.jpg,72,(unused),260.84362147902,270.067490816808,9.18602883217715,0,0.926250364990665,0,2,1
23,2,animal,1,0,animals,1,gerbil.jpg,90,(unused),274.421319956909,281.627016142185,7.14736100674886,1,0.92226844288507,1,1,1
24,2,animal,1,0,animals,1,baboon.jpg,113,(unused),286.180893969823,295.654973629434,9.42872957645171,1,0.841779412174219,1,1,1
25,2,animal,1,0,animals,1,macaw.jpg,81,(unused),300.208935810315,306.263761890285,6.0077631480236,1,0.714425579826639,1,1,1
26,2,tool,0,0,animals,1,avocadoslicer.jpg,76,(unused),310.834252495803,318.089899592625,7.21078191104993,0,1.00275907726973,0,2,1
27,2,tool,0,0,animals,1,magnifyingglass.jpg,74,(unused),322.443686395736,331.117217214017,8.62551565507867,0,0.829857059495225,0,2,1
28,2,animal,0,0,animals,1,orangutan.jpg,73,(unused),335.470984773043,344.661639460052,9.14709756156991,1,1.01102537436327,0,1,0
29,2,animal,1,0,animals,1,ram.jpg,97,(unused),349.015311760852,356.771375652501,7.71190322038892,1,0.884607446059817,1,1,1
30,2,tool,0,0,animals,1,stove.jpg,101,(unused),361.325298383005,370.632769803133,9.24782209072521,0,0.807861710790348,0,2,1
31,2,animal,1,0,animals,1,prayingmantis.jpg,96,(unused),374.986413879274,384.710893414952,9.68168703576459,1,0.80321426404771,1,1,1
32,2,animal,0,0,animals,1,pelican.jpg,92,(unused),389.264690417429,398.188501798446,8.8755538274612,1,0.763168283511732,0,1,0
33,2,tool,0,0,animals,1,airhorn.jpg,89,(unused),402.542145874587,411.93287458718,9.34362189795073,0,0.732251376588465,0,2,1
34,2,animal,0,0,animals,1,catfish.jpg,87,(unused),416.303299185484,425.493865670433,9.15120662066073,1,0.787839201624593,0,1,0
35,2,animal,1,0,animals,1,crow.jpg,75,(unused),429.847691282451,439.45526844883,9.57360801221741,1,0.855901043136328,1,1,1
36,2,tool,0,0,animals,1,mixer.jpg,116,(unused),444.009209781952,451.748706119321,7.69410273443238,0,1.48504120775578,0,2,1
37,2,tool,0,0,animals,1,padlock.jpg,84,(unused),456.102363987056,462.790995318802,6.64004487943062,0,1.0591211560286,0,2,1
38,2,animal,1,0,animals,1,ant.jpg,112,(unused),467.144654148742,474.016835571721,6.82977416165333,1,1.81673419659001,1,1,1
39,2,tool,0,0,animals,1,generator.jpg,66,(unused),478.587314310053,487.744567678649,9.11451772291725,0,0.871422681347212,0,2,1
40,2,animal,0,0,animals,1,starfish.jpg,105,(unused),492.098282637174,500.888642697228,8.74733834521718,1,2.01695479796217,0,1,0
41,2,tool,0,0,animals,1,level.jpg,100,(unused),505.258984866698,514.933389366478,9.63640178404163,0,1.22974435329797,0,2,1
42,2,tool,0,0,animals,1,hammer.jpg,63,(unused),519.30374725195,525.491996428224,6.14808700584647,0,0.868487316778555,0,2,1
43,2,tool,0,0,animals,1,clippers.jpg,61,(unused),529.845644032447,538.702793899935,8.81445753427031,0,0.696173205828018,0,2,1
44,2,animal,1,0,animals,1,flea.jpg,77,(unused),543.0563985257,549.695010308662,6.59444530280083,1,1.30933917548464,1,1,1
45,2,animal,1,0,animals,1,dragonfly.jpg,68,(unused),554.248824630816,561.821518684169,7.51472075583351,1,0.806207681607702,1,1,1
46,2,animal,1,0,animals,1,seaslug.jpg,119,(unused),566.375347439388,572.797109485624,6.37090482014045,1,0.7221549669257,1,1,1
47,2,tool,0,0,animals,1,tubeflaring.jpg,109,(unused),577.350949145825,585.257255144111,7.85948424243299,0,0.731408485625252,0,2,1
48,2,animal,1,0,animals,1,stinkbug.jpg,62,(unused),589.610856241793,598.084274867053,8.4333150522574,1,0.830947557695254,1,1,1
49,2,animal,0,0,animals,1,hedgehog.jpg,108,(unused),602.654854957571,609.493627043767,6.78004599409729,1,0.677069601763833,0,1,0
50,2,animal,1,0,animals,1,caiman.jpg,64,(unused),613.847281704157,622.304045856016,8.39930642564958,1,0.791013513592588,1,1,1
51,2,tool,0,0,animals,1,reflexhammer.jpg,93,(unused),626.857864668457,633.963490965629,7.05312115885509,0,1.18510897901251,0,2,1
52,2,tool,0,0,animals,1,ducttape.jpg,83,(unused),638.317152040713,645.906379971194,7.53917681217459,0,0.764710376261064,0,2,1
53,2,tool,0,0,animals,1,curlingiron.jpg,99,(unused),650.276901431397,659.100608284954,8.77572485491079,0,0.727845122388317,0,2,1
54,2,animal,0,0,animals,1,kangaroo.jpg,115,(unused),663.454285076041,670.693324206003,7.19953908931015,1,0.815636000755148,0,1,0
55,2,animal,0,0,animals,1,malaysianjunglenymph.jpg,85,(unused),675.06375842635,685.005030607965,9.89700879539442,1,0.989350760424713,0,1,0
56,2,animal,1,0,animals,1,turtle.jpg,78,(unused),689.3586358752,699.033098748707,9.62646522348172,1,1.91689421116553,1,1,1
57,2,tool,0,0,animals,1,stopwatch.jpg,111,(unused),703.586895109715,713.361445511739,9.72961282382714,0,0.889073036191803,0,2,1
58,2,tool,0,0,animals,1,lighterbic.jpg,69,(unused),717.715038270318,726.60552081898,8.8463971158026,0,1.00344544966538,0,2,1
59,2,animal,1,0,animals,1,goldfish.jpg,98,(unused),730.959096899351,737.380817250068,6.38333889273982,1,0.653659492011684,1,1,1
60,2,animal,1,0,animals,1,wasp.jpg,104,(unused),741.934724906038,750.27472075573,8.29913663522596,1,1.0102828733834,1,1,1
