trial,phase,object,toShock,seenBefore,shockedCategory,responseSide,filename,num,name,onsetFixationCross,onsetStimulus,interTrialTime,response,reactionTime,wasShocked,buttonPressed,isResponseCorrect
1,3,tool,0,0,animals,1,chainsaw.jpg,179,(unused),0.0184430895233163,5.85641269733878,5.76991990688582,tool,0.69729385793471,0,2,1
2,3,tool,0,0,animals,1,wateringcan.jpg,123,(unused),8.42529866682889,16.0480597377109,7.58083281192109,tool,0.706960162277937,0,2,1
3,3,tool,0,0,animals,1,jumpercables.jpg,167,(unused),18.6002155403958,24.5716201117002,5.91771295858541,tool,0.934804686742609,0,2,1
4,3,animal,0,0,animals,1,beetle.jpg,125,(unused),27.1404858748992,32.961772143186,5.7722552003271,animal,1.06598584703897,0,1,1
5,3,tool,0,0,animals,1,dremel.jpg,165,(unused),35.5139552083265,39.7339289016609,4.17342864967282,tool,0.644990356890048,0,2,1
6,3,tool,0,0,animals,1,magnet.jpg,180,(unused),42.2861222303136,50.1591115841647,7.82619356409875,tool,0.666209527464162,0,2,1
7,3,tool,0,0,animals,1,glove.jpg,150,(unused),52.7112786125663,59.5000189620587,6.73632170573139,tool,1.14168855285334,0,2,1
8,3,animal,0,0,animals,1,stickinsect.jpg,162,(unused),62.0522299311233,66.6558123460054,4.56439816799655,animal,0.971135275762208,0,1,1
9,3,animal,0,0,animals,1,aardvark.jpg,175,(unused),69.2079938074721,76.3135328647877,7.04271993469396,animal,0.953853124427951,0,1,1
10,3,animal,0,0,animals,1,octopus.jpg,170,(unused),78.8658865608231,84.170100919413,5.2517676529661,animal,0.807566639645302,0,1,1
11,3,tool,0,0,animals,1,beadingtool.jpg,154,(unused),86.722286871166,90.9254999278937,4.16460065378246,tool,0.755430882882138,0,2,1
12,3,animal,0,0,animals,1,palmcockatoo.jpg,160,(unused),93.4777727987675,98.0312307845988,4.49917964434912,animal,0.951957902700997,0,1,1
13,3,animal,0,0,animals,1,shrimp.jpg,177,(unused),100.600196617044,107.772492766849,7.11808921490314,animal,1.07701944368455,0,1,1
14,3,animal,0,0,animals,1,gecko.jpg,122,(unused),110.324788409891,115.895907655548,5.51951498520573,animal,0.662009505718743,0,1,1
15,3,tool,0,0,animals,1,saw.jpg,163,(unused),118.448072118073,124.319407122006,5.82304835834695,tool,0.683810489155803,0,2,1
16,3,tool,0,0,animals,1,hairbrush.jpg,131,(unused),126.88821322854,133.043165325199,6.10863362701401,tool,1.56537693208793,0,2,1
17,3,tool,0,0,animals,1,measuringdevice.jpg,145,(unused),135.611996769779,143.268137990578,7.61579472504557,tool,1.29971617517367,0,2,1
18,3,animal,0,0,animals,1,waterbuffalo.jpg,173,(unused),145.836965586341,151.975196496769,6.08528546082993,animal,0.874970654153913,0,1,1
19,3,animal,0,0,animals,1,duck.jpg,149,(unused),154.52739848526,160.982473006379,6.40827396484065,animal,1.08104466498389,0,1,1
20,3,animal,0,0,animals,1,prairiedog.jpg,152,(unused),163.5346964841,167.921506138601,4.33639592044374,animal,0.981396863829104,0,1,1
21,3,tool,0,0,animals,1,telephone.jpg,138,(unused),170.490352657715,176.461850242101,5.92035216513827,tool,1.53734182702647,0,2,1
22,3,tool,0,0,animals,1,binoculars.jpg,144,(unused),179.013982631149,184.334700717799,5.26829478020946,tool,1.23874000608703,0,2,1
23,3,tool,0,0,animals,1,camera.jpg,133,(unused),186.887033886809,194.209576312802,7.26765996040257,tool,0.869190051486839,0,2,1
24,3,animal,0,0,animals,1,lemur.jpg,127,(unused),196.761735322835,202.499656211039,5.69010418643529,animal,0.691505236898593,0,1,1
25,3,animal,0,0,animals,1,bluejay.jpg,139,(unused),205.051810730785,210.906326082915,5.80890924425847,animal,0.698251251208603,0,1,1
26,3,animal,0,0,animals,1,springhare.jpg,169,(unused),213.458601198933,218.245778607916,4.74159428363414,animal,0.925892750566163,0,1,1
27,3,tool,0,0,animals,1,electricdrill.jpg,157,(unused),220.797914845781,226.869450244795,6.02565574271299,tool,0.979626407927753,0,2,1
28,3,animal,0,0,animals,1,elephantafrican.jpg,153,(unused),229.438280085701,235.693251715108,6.19831823139584,animal,1.59310156589618,0,1,1
29,3,animal,0,0,animals,1,moth.jpg,159,(unused),238.262144099293,244.500470877342,6.18829689325969,animal,1.01542906752366,0,1,1
30,3,animal,0,0,animals,1,earthworm.jpg,137,(unused),247.069319320864,251.489495975158,4.37098787767805,animal,0.810516116543113,0,1,1
31,3,tool,0,0,animals,1,crutches.jpg,121,(unused),254.041652098578,261.164010166228,7.07712450198694,tool,2.14640110875371,0,2,1
32,3,animal,0,0,animals,1,brown_bear.jpg,129,(unused),263.716189061816,268.236241238948,4.47048420644437,animal,0.848381100677216,0,1,1
33,3,tool,0,0,animals,1,smartphone.jpg,176,(unused),270.805255181609,276.526357380214,5.68527831089938,tool,0.766583792860729,0,2,1
34,3,tool,0,0,animals,1,pencil.jpg,161,(unused),279.078659758687,283.849093530004,4.72100887316325,tool,0.939123059616577,0,2,1
35,3,animal,0,0,animals,1,crab.jpg,143,(unused),286.401260237672,292.572846280706,6.12368366171957,animal,0.751628892980079,0,1,1
36,3,animal,0,0,animals,1,fly.jpg,147,(unused),295.14169215835,302.097292524116,6.90797892021825,animal,0.673609519959427,0,1,1
37,3,animal,0,0,animals,1,penguin.jpg,164,(unused),304.649464042805,312.655959242528,7.96134850441066,animal,0.67333336732645,0,1,1
38,3,tool,0,0,animals,1,drill.jpg,124,(unused),315.208054105608,323.147604583006,7.90102602494502,tool,0.833106748970749,0,2,1
39,3,tool,0,0,animals,1,pruner.jpg,135,(unused),325.716590301007,331.571239399535,5.79800990855398,tool,0.962710856428203,0,2,1
40,3,tool,0,0,animals,1,typewriter.jpg,136,(unused),334.123406748671,338.843817443123,4.67159524907435,tool,0.665399351447377,0,2,1
41,3,animal,0,0,animals,1,otter.jpg,146,(unused),341.412650812111,348.585041257936,7.11102771854003,animal,0.86662032455024,0,1,1
42,3,tool,0,0,animals,1,caulkinggun.jpg,156,(unused),351.153910869953,358.810050487078,7.61392376841042,tool,0.602978592981344,0,2,1
43,3,tool,0,0,animals,1,lantern.jpg,140,(unused),361.36222489238,365.749011133244,4.33657560485634,tool,0.96450280155932,0,2,1
44,3,tool,0,0,animals,1,oven.jpg,128,(unused),368.317895819794,373.588743499326,5.22109824598411,tool,0.960869518143227,0,2,1
45,3,animal,0,0,animals,1,chimp.jpg,141,(unused),376.140905716707,384.13063803468,7.94515919171868,,2.50497487823031,0,,0
46,3,tool,0,0,animals,1,corkscrew.jpg,151,(unused),386.649397971443,393.588278433917,6.89246613061821,tool,0.461057949817587,0,2,1
47,3,tool,0,0,animals,1,ruler.jpg,166,(unused),396.140456367301,402.562330349971,6.37676859346588,tool,0.666369574111741,0,2,1
48,3,animal,0,0,animals,1,giraffe.jpg,171,(unused),405.131146720017,411.2526683114,6.06335909224408,animal,0.60434684748725,0,1,1
49,3,tool,0,0,animals,1,wheeldolly.jpg,148,(unused),413.80487286577,420.393418914141,6.53856481915224,tool,0.649882203523703,0,2,1
50,3,tool,0,0,animals,1,tape.jpg,126,(unused),422.962320920368,428.650141755363,5.63914941504036,tool,1.10548016378016,0,2,1
51,3,animal,0,0,animals,1,deer.jpg,142,(unused),431.202339895038,437.974284327098,6.72654954165701,animal,0.728758579836722,0,1,1
52,3,animal,0,0,animals,1,sparrow.jpg,172,(unused),440.543270365834,446.047607180957,5.45442360740656,animal,0.744732774801378,0,1,1
53,3,animal,0,0,animals,1,highlandcow.jpg,178,(unused),448.599818470757,454.738012817422,6.08749499866881,animal,0.647657907929897,0,1,1
54,3,tool,0,0,animals,1,faxmachine.jpg,174,(unused),457.306870562252,463.111386571888,5.75515264487667,tool,1.04466917309765,0,2,1
55,3,animal,0,0,animals,1,angelfish.jpg,132,(unused),465.663698251669,473.269774700084,7.54565153606717,animal,1.37360993691345,0,1,1
56,3,tool,0,0,animals,1,ladder.jpg,158,(unused),475.838622502136,483.561478157701,7.67548155426995,tool,1.43330829869683,0,2,1
57,3,animal,0,0,animals,1,mink.jpg,134,(unused),486.130338789144,490.934098506204,4.75387189590353,animal,2.10991079382075,0,1,1
58,3,animal,0,0,animals,1,lobsterspiny.jpg,155,(unused),493.486235860456,499.390901787706,5.8614586688483,animal,0.719380936782727,0,1,1
59,3,tool,0,0,animals,1,carpetblower.jpg,168,(unused),501.94318812944,507.347416568286,5.35699750557132,tool,0.611426105218015,0,2,1
60,3,animal,0,0,animals,1,dog.jpg,130,(unused),509.899623688534,517.489035400035,7.54089880397763,animal,0.982944729804331,0,1,1
