trial,phase,object,toShock,seenBefore,shockedCategory,responseSide,filename,num,name,onsetFixationCross,onsetStimulus,interTrialTime,response,reactionTime,wasShocked,buttonPressed,isResponseCorrect
1,3,tool,0,0,tools,2,jumpercables.jpg,167,(unused),0.0184418180829198,7.40763356968273,7.32456631884667,tool,0.998799599937229,0,1,1
2,3,animal,0,0,tools,2,gecko.jpg,122,(unused),9.97649548406525,16.8987063986051,6.87484814501896,animal,0.634065157096757,0,2,1
3,3,tool,0,0,tools,2,camera.jpg,133,(unused),19.467605838955,25.6891963562393,6.17235690923911,tool,0.747975391775071,0,1,1
4,3,tool,0,0,tools,2,ladder.jpg,158,(unused),28.2580653267864,35.6139417168911,7.3094726719624,tool,0.662630436724157,0,1,1
5,3,tool,0,0,tools,2,lantern.jpg,140,(unused),38.1827869530657,45.1383449818427,6.90478299502466,tool,0.918456503544348,0,1,1
6,3,animal,0,0,tools,2,moth.jpg,159,(unused),47.7072036888776,53.5284758448342,5.76130955077106,animal,0.585741012279414,0,2,1
7,3,animal,0,0,tools,2,fly.jpg,147,(unused),56.0806601929135,62.5524802761056,6.41641689855097,animal,0.753094639356732,0,2,1
8,3,animal,0,0,tools,2,otter.jpg,146,(unused),65.1046707181454,72.2101639103898,7.06474446710872,animal,0.830704754817816,0,2,1
9,3,tool,0,0,tools,2,wheeldolly.jpg,148,(unused),74.7625330016936,80.2669256246659,5.45761743109236,tool,0.876308106624492,0,1,1
10,3,tool,0,0,tools,2,oven.jpg,128,(unused),82.8190981055591,87.0056958185278,4.13424191556528,tool,0.723794235647802,0,1,1
11,3,animal,0,0,tools,2,stickinsect.jpg,162,(unused),89.5745493938061,95.8295466819936,6.20639690422505,animal,0.696272626944847,0,2,1
12,3,tool,0,0,tools,2,smartphone.jpg,176,(unused),98.3984284819317,103.018748119784,4.57068476296894,tool,0.783356926625402,0,1,1
13,3,tool,0,0,tools,2,magnet.jpg,180,(unused),105.570931184924,112.126182719559,6.51113876509682,tool,1.09220558183279,0,1,1
14,3,tool,0,0,tools,2,glove.jpg,150,(unused),114.678334673427,120.69977322658,5.97333452066116,tool,0.718917784283349,0,1,1
15,3,animal,0,0,tools,2,mink.jpg,134,(unused),123.25194346233,130.541114398243,7.2433940262332,animal,0.622944641329468,0,2,1
16,3,tool,0,0,tools,2,wateringcan.jpg,123,(unused),133.093281426645,137.830374177687,4.69568264161555,tool,1.0430452814835,0,1,1
17,3,tool,0,0,tools,2,electricdrill.jpg,157,(unused),140.382516830247,146.854383740715,6.41484758792837,tool,0.964308424793671,0,1,1
18,3,animal,0,0,tools,2,beetle.jpg,125,(unused),149.406525751805,157.379581144944,7.92300265712489,animal,0.860501976677824,0,2,1
19,3,animal,0,0,tools,2,octopus.jpg,170,(unused),159.9317901896,164.652192224213,4.67719546126692,animal,0.797150445923307,0,2,1
20,3,animal,0,0,tools,2,brown_bear.jpg,129,(unused),167.204364705106,172.124901704909,4.86762883224502,animal,0.509787812613467,0,2,1
21,3,tool,0,0,tools,2,drill.jpg,124,(unused),174.693734111693,181.265509901414,6.51529586814313,tool,0.945469106175551,0,1,1
22,3,tool,0,0,tools,2,dremel.jpg,165,(unused),183.817870974348,191.790730719281,7.91383953512497,tool,0.994724344014685,0,1,1
23,3,tool,0,0,tools,2,beadingtool.jpg,154,(unused),194.359769037784,200.464499843492,6.06599459773392,tool,2.06231919570837,0,1,1
24,3,animal,0,0,tools,2,elephantafrican.jpg,153,(unused),203.016744810442,210.456065802116,7.37806684803782,animal,0.850092209149352,0,2,1
25,3,animal,0,0,tools,2,aardvark.jpg,175,(unused),213.024950167931,217.828745486551,4.75313830292548,animal,0.58473165997475,0,2,1
26,3,tool,0,0,tools,2,pruner.jpg,135,(unused),220.397597137421,226.202221234673,5.74978200328064,tool,0.765556788645426,0,1,1
27,3,animal,0,0,tools,2,shrimp.jpg,177,(unused),228.77104979264,233.091068356768,4.27042637579614,animal,0.708873975121151,0,2,1
28,3,animal,0,0,tools,2,chimp.jpg,141,(unused),235.643323907965,241.548056702229,5.84266789979242,animal,0.673237135398267,0,2,1
29,3,animal,0,0,tools,2,lemur.jpg,127,(unused),244.10020352434,248.26998190624,4.12405227588514,animal,0.666594397683184,0,2,1
30,3,tool,0,0,tools,2,chainsaw.jpg,179,(unused),250.822341696236,254.975585238803,4.09547731780944,tool,0.68823501373754,0,1,1
31,3,animal,0,0,tools,2,deer.jpg,142,(unused),257.527809678727,263.198891366344,5.61094847066627,animal,0.545237984703817,0,2,1
32,3,tool,0,0,tools,2,ruler.jpg,166,(unused),265.751141785785,271.472333790124,5.67889453406503,tool,0.844292041661447,0,1,1
33,3,animal,0,0,tools,2,bluejay.jpg,139,(unused),274.041227136514,278.411392581127,4.32743773761326,animal,0.561255158125732,0,2,1
34,3,tool,0,0,tools,2,corkscrew.jpg,151,(unused),280.963521442092,286.98489167874,5.97346180869961,tool,0.844178180820563,0,1,1
35,3,tool,0,0,tools,2,faxmachine.jpg,174,(unused),289.55383890857,296.07569297361,6.47406347952236,tool,0.748695762056741,0,1,1
36,3,animal,0,0,tools,2,sparrow.jpg,172,(unused),298.644547190358,304.866217891334,6.17965630838441,animal,0.528489536017787,0,2,1
37,3,tool,0,0,tools,2,hairbrush.jpg,131,(unused),307.418360864629,314.157022970875,6.70007405108744,tool,0.81897099418029,0,1,1
38,3,animal,0,0,tools,2,giraffe.jpg,171,(unused),316.709222714223,321.029302217956,4.26106722299409,animal,0.627014444760789,0,2,1
39,3,animal,0,0,tools,2,springhare.jpg,169,(unused),323.581458662111,329.91978701176,6.29597707155653,animal,0.695908913721269,0,2,1
40,3,animal,0,0,tools,2,waterbuffalo.jpg,173,(unused),332.488710827952,338.827138605379,6.29737276421311,animal,0.514788067597692,0,2,1
41,3,tool,0,0,tools,2,telephone.jpg,138,(unused),341.395989614779,346.249779144136,4.79792488589504,tool,1.3695128595291,0,1,1
42,3,animal,0,0,tools,2,prairiedog.jpg,152,(unused),348.802005187735,353.722366104152,4.87503604719092,animal,0.506201356472502,0,2,1
43,3,tool,0,0,tools,2,crutches.jpg,121,(unused),356.274737440599,364.280967713406,7.96085754420154,tool,0.769868746824159,0,1,1
44,3,tool,0,0,tools,2,saw.jpg,163,(unused),366.833326541197,374.372665461944,7.47677812724247,tool,1.02369310797667,0,1,1
45,3,tool,0,0,tools,2,tape.jpg,126,(unused),376.924872261457,384.097245708339,7.12746056186989,tool,0.6534638371445,0,1,1
46,3,animal,0,0,tools,2,angelfish.jpg,132,(unused),386.649426528336,394.18859834627,7.4924909606527,animal,0.553486962121042,0,2,1
47,3,animal,0,0,tools,2,penguin.jpg,164,(unused),396.740979625495,401.511313327567,4.72269678214154,animal,0.634044630071458,0,2,1
48,3,tool,0,0,tools,2,caulkinggun.jpg,156,(unused),404.080278839278,409.551244805792,5.42278805884545,tool,0.98042919554473,0,1,1
49,3,tool,0,0,tools,2,binoculars.jpg,144,(unused),412.120141680263,419.359076571427,7.19165295527392,tool,0.643889904413754,0,1,1
50,3,tool,0,0,tools,2,typewriter.jpg,136,(unused),421.911398835455,427.065502588661,5.09621172691722,tool,0.636756442508158,0,1,1
51,3,animal,0,0,tools,2,palmcockatoo.jpg,160,(unused),429.617668975593,433.904461983961,4.22818846035254,animal,0.595039433847433,0,2,1
52,3,animal,0,0,tools,2,crab.jpg,143,(unused),436.456569034962,441.410547765756,4.88737966829355,animal,0.526258184258495,0,2,1
53,3,tool,0,0,tools,2,pencil.jpg,161,(unused),443.962670853496,450.484433829863,6.48367740483348,tool,1.09772606860543,0,1,1
54,3,animal,0,0,tools,2,earthworm.jpg,137,(unused),453.036746151114,458.274186418273,5.17861764761933,animal,0.735221053115765,0,2,1
55,3,tool,0,0,tools,2,carpetblower.jpg,168,(unused),460.843115366221,466.914566732728,6.01439657831331,tool,0.680259943809233,0,1,1
56,3,animal,0,0,tools,2,dog.jpg,130,(unused),469.46674723199,473.569979885611,4.04465544267476,animal,1.01612729560838,0,2,1
57,3,tool,0,0,tools,2,measuringdevice.jpg,145,(unused),476.138855912323,480.325455870435,4.13322818809239,tool,0.662880930575739,0,1,1
58,3,animal,0,0,tools,2,lobsterspiny.jpg,155,(unused),482.894318747022,489.366167375608,6.41903719857884,animal,0.682405659386404,0,2,1
59,3,animal,0,0,tools,2,highlandcow.jpg,178,(unused),491.918385080103,498.623557986611,6.65655397346012,animal,1.1064141319157,0,2,1
60,3,animal,0,0,tools,2,duck.jpg,149,(unused),501.175878967701,507.597654805532,6.36757142653249,animal,0.819638443225813,0,2,1
