trial,phase,object,toShock,seenBefore,shockedCategory,responseSide,filename,num,name,onsetFixationCross,onsetStimulus,interTrialTime,response,reactionTime,wasShocked,buttonPressed,isResponseCorrect
1,3,tool,0,0,animals,1,carpetblower.jpg,168,(unused),0.018489604082788,4.17154840342482,4.09245406775758,tool,0.897208470321857,0,2,1
2,3,animal,0,0,animals,1,gecko.jpg,122,(unused),6.74067852533153,12.6953252733801,5.91092924275643,tool,0.429729532172132,0,2,0
3,3,tool,0,0,animals,1,ladder.jpg,158,(unused),15.2475449022841,22.1530744017036,6.86122047746447,tool,0.623240041528334,0,2,1
4,3,tool,0,0,animals,1,camera.jpg,133,(unused),24.7052449581879,29.8593342783297,5.10455756677666,tool,0.599387317799483,0,2,1
5,3,animal,0,0,animals,1,brown_bear.jpg,129,(unused),32.4281830425862,37.2319533438949,4.74984189948602,animal,0.651031388168121,0,1,1
6,3,animal,0,0,animals,1,dog.jpg,130,(unused),39.8008505391008,47.2401256657031,7.38629447835959,animal,0.559291944111465,0,1,1
7,3,tool,0,0,animals,1,beadingtool.jpg,154,(unused),49.7923039198213,57.248239934519,7.40391460854002,tool,0.539527305696538,0,2,1
8,3,tool,0,0,animals,1,glove.jpg,150,(unused),59.8004550731366,64.5541355847472,4.70045577437993,tool,0.817828861163434,0,2,1
9,3,tool,0,0,animals,1,electricdrill.jpg,157,(unused),67.1063712503874,74.5289380201502,7.36050307398232,tool,0.545465389132005,0,2,1
10,3,animal,0,0,animals,1,aardvark.jpg,175,(unused),77.0811669503619,83.2527302212275,6.11394507178979,animal,0.583032410670057,0,1,1
11,3,animal,0,0,animals,1,giraffe.jpg,171,(unused),85.8216001539786,91.5426446203255,5.66458626068865,animal,0.617402989542825,0,1,1
12,3,tool,0,0,animals,1,drill.jpg,124,(unused),94.1116675435605,99.2823641890918,5.12897412932864,tool,0.57090863655867,0,2,1
13,3,animal,0,0,animals,1,moth.jpg,159,(unused),101.83460434502,106.655076267738,4.76293732122848,animal,0.51240853985837,0,1,1
14,3,tool,0,0,animals,1,crutches.jpg,121,(unused),109.223943313877,116.162744875599,6.899874002117,tool,0.562225384270278,0,2,1
15,3,animal,0,0,animals,1,fly.jpg,147,(unused),118.714951354377,123.301881220268,4.55036024179668,animal,0.538361114091458,0,1,1
16,3,tool,0,0,animals,1,binoculars.jpg,144,(unused),125.854121055461,133.360154878226,7.46285106423424,tool,0.575403734288557,0,2,1
17,3,animal,0,0,animals,1,stickinsect.jpg,162,(unused),135.912332170139,142.684339466214,6.72516320757425,animal,0.537636253522578,0,1,1
18,3,tool,0,0,animals,1,pruner.jpg,135,(unused),145.236554284096,152.525696674616,7.23119602253805,tool,0.550576618345076,0,2,1
19,3,animal,0,0,animals,1,otter.jpg,146,(unused),155.09457622941,159.848342056468,4.7110356379723,animal,0.544279953441219,0,1,1
20,3,animal,0,0,animals,1,penguin.jpg,164,(unused),162.400501066501,167.637979501098,5.18306287695647,animal,0.5369392968787,0,1,1
21,3,tool,0,0,animals,1,measuringdevice.jpg,145,(unused),170.190169301668,174.593627335609,4.35697870642402,tool,0.655478375681923,0,2,1
22,3,tool,0,0,animals,1,chainsaw.jpg,179,(unused),177.145841512021,183.834309269036,6.64829301507004,tool,1.32924493401697,0,2,1
23,3,animal,0,0,animals,1,sparrow.jpg,172,(unused),186.403367152359,190.956936753888,4.50676916046378,animal,0.60485744921607,0,1,1
24,3,animal,0,0,animals,1,springhare.jpg,169,(unused),193.509137780176,200.731577282382,7.17672718296142,animal,0.789604843326742,0,1,1
25,3,animal,0,0,animals,1,bluejay.jpg,139,(unused),203.283752649888,211.056613421173,7.71907683791669,animal,0.556798552048349,0,1,1
26,3,tool,0,0,animals,1,oven.jpg,128,(unused),213.608807070559,219.813741831505,6.15257271415331,tool,1.09609224919404,0,2,1
27,3,animal,0,0,animals,1,prairiedog.jpg,152,(unused),222.365865881449,227.353210970567,4.93721846217902,animal,0.509958767723219,0,1,1
28,3,animal,0,0,animals,1,chimp.jpg,141,(unused),229.905398525993,235.643211647317,5.68419302190698,animal,1.54923658849657,0,1,1
29,3,tool,0,0,animals,1,caulkinggun.jpg,156,(unused),238.212151820982,246.05157564022,7.80018191688303,tool,0.578235180793854,0,2,1
30,3,tool,0,0,animals,1,typewriter.jpg,136,(unused),248.603862623424,255.059031440565,6.40520978749074,tool,0.772199850574907,0,2,1
31,3,animal,0,0,animals,1,highlandcow.jpg,178,(unused),257.61118724325,263.966201177571,6.30989450182925,animal,0.421283302875963,0,1,1
32,3,tool,0,0,animals,1,dremel.jpg,165,(unused),266.518508046331,274.107854007207,7.54477277992491,tool,0.53110769738305,0,2,1
33,3,tool,0,0,animals,1,faxmachine.jpg,174,(unused),276.660055033493,282.064353071783,5.36352771788126,tool,0.658901577829965,0,2,1
34,3,tool,0,0,animals,1,pencil.jpg,161,(unused),284.616545117497,291.905664094378,7.23781168805186,animal,0.39487015351915,0,1,0
35,3,animal,0,0,animals,1,crab.jpg,143,(unused),294.457876025648,300.929686486797,6.41860485643761,animal,0.724272775396457,0,1,1
36,3,animal,0,0,animals,1,earthworm.jpg,137,(unused),303.481892644841,308.385728664702,4.85589987881918,animal,0.618493487741944,0,1,1
37,3,animal,0,0,animals,1,lobsterspiny.jpg,155,(unused),310.954606615822,315.074530948077,4.06856266461599,animal,0.576967957736997,0,1,1
38,3,tool,0,0,animals,1,lantern.jpg,140,(unused),317.626710485134,322.597327973326,4.92805676057446,tool,0.632437752379701,0,2,1
39,3,tool,0,0,animals,1,tape.jpg,126,(unused),325.166166794805,331.170932592675,5.94593851362462,tool,0.586191648106251,0,2,1
40,3,animal,0,0,animals,1,angelfish.jpg,132,(unused),333.723099300343,341.495978674244,7.72987634481463,animal,0.649433487569695,0,1,1
41,3,animal,0,0,animals,1,octopus.jpg,170,(unused),344.048205680047,349.118869001235,5.02127917480909,animal,0.659898421477919,0,1,1
42,3,tool,0,0,animals,1,magnet.jpg,180,(unused),351.67104693462,356.291368496881,4.57147108506373,tool,0.593673748699075,0,2,1
43,3,tool,0,0,animals,1,hairbrush.jpg,131,(unused),358.843553486429,363.480557746749,4.58516332883019,tool,0.765769118539538,0,2,1
44,3,tool,0,0,animals,1,wateringcan.jpg,123,(unused),366.049394323085,373.171762654247,7.05976898612609,tool,0.549804930502432,0,2,1
45,3,animal,0,0,animals,1,shrimp.jpg,177,(unused),375.740642209043,383.430073132557,7.64263537027837,animal,0.621994949169675,0,1,1
46,3,animal,0,0,animals,1,palmcockatoo.jpg,160,(unused),385.982283460151,391.836939294108,5.81028859502611,animal,0.630376069311751,0,1,1
47,3,animal,0,0,animals,1,waterbuffalo.jpg,173,(unused),394.405799925551,399.726664267255,5.27052780021469,animal,0.9239590326506,0,1,1
48,3,tool,0,0,animals,1,jumpercables.jpg,167,(unused),402.278828409044,407.082662215835,4.75222702171409,tool,0.65530036788914,0,2,1
49,3,animal,0,0,animals,1,deer.jpg,142,(unused),409.634863883592,415.122557451032,5.43759821245009,animal,0.885638925883541,0,1,1
50,3,tool,0,0,animals,1,corkscrew.jpg,151,(unused),417.674674765545,424.229928866058,6.51366875261061,tool,0.525622812170695,0,2,1
51,3,tool,0,0,animals,1,smartphone.jpg,176,(unused),426.782127647202,430.968737227357,4.13504751936755,tool,0.962070982555815,0,2,1
52,3,animal,0,0,animals,1,elephantafrican.jpg,153,(unused),433.520903935025,439.258812635308,5.6862900651971,animal,0.61538941668914,0,1,1
53,3,tool,0,0,animals,1,saw.jpg,163,(unused),441.827686416877,446.164425525767,4.28974383055174,tool,0.652947778387897,0,2,1
54,3,animal,0,0,animals,1,beetle.jpg,125,(unused),448.716634249688,455.672148658537,6.90603420106236,animal,0.586646129266228,0,1,1
55,3,tool,0,0,animals,1,telephone.jpg,138,(unused),458.224351929966,463.662005742333,5.38607256471491,tool,0.537096777647093,0,2,1
56,3,tool,0,0,animals,1,wheeldolly.jpg,148,(unused),466.214156413262,474.070471087423,7.80891013052056,tool,0.617189380189302,0,2,1
57,3,tool,0,0,animals,1,ruler.jpg,166,(unused),476.639333322541,482.393758901009,5.7026246503356,tool,0.580044766336869,0,2,1
58,3,animal,0,0,animals,1,duck.jpg,149,(unused),484.96276065575,491.901619308259,6.89242143529029,animal,0.590540490780768,0,1,1
59,3,animal,0,0,animals,1,lemur.jpg,127,(unused),494.453824504099,500.642055077755,6.13384397477049,animal,0.665432379109916,0,1,1
60,3,animal,0,0,animals,1,mink.jpg,134,(unused),503.210924369036,510.566763874644,7.30973553170887,animal,0.616117484603819,0,1,1
