trial,phase,object,toShock,seenBefore,shockedCategory,responseSide,filename,num,name,onsetFixationCross,onsetStimulus,interTrialTime,response,reactionTime,wasShocked,buttonPressed,isResponseCorrect
1,1,animal,0,0,animals,1,tragopan.jpg,55,(unused),0.018454051446497,4.48860182357384,4.40490063021567,animal,0.907884398783608,0,1,1
2,1,animal,0,0,animals,1,seahorse.jpg,42,(unused),7.07420352680401,11.2941461088667,4.16883244130684,animal,0.523638377257157,0,1,1
3,1,tool,0,0,animals,1,shovel.jpg,52,(unused),13.8463474558885,21.1021183563289,7.21191719472065,tool,0.884047711793755,0,2,1
4,1,animal,0,0,animals,1,partridge.jpg,33,(unused),23.6543328534763,28.0744642841682,4.37421236911582,animal,0.441882444224575,0,1,1
5,1,animal,0,0,animals,1,panda.jpg,18,(unused),30.6266662726593,36.4145515432683,5.72999766351278,tool,0.586097944630637,0,2,0
6,1,tool,0,0,animals,1,hourglass.jpg,10,(unused),38.9667310803261,44.1375512087416,5.11701754204062,tool,0.931553982960395,0,2,1
7,1,animal,0,0,animals,1,phasmagigas.jpg,36,(unused),46.7063794459737,52.2440220005492,5.49383626754775,animal,0.674325022278936,0,1,1
8,1,animal,0,0,animals,1,cockatiel.jpg,20,(unused),54.7963137947745,59.5167244892264,4.66665141691361,animal,0.652828095398945,0,1,1
9,1,tool,0,0,animals,1,compass.jpg,32,(unused),62.0522251770426,68.9577251688634,6.86163153656394,tool,0.765259101342053,0,2,1
10,1,animal,0,0,animals,1,cat.jpg,8,(unused),71.526590290594,76.2636487230156,4.68717372960108,animal,0.635593412808703,0,1,1
11,1,animal,0,0,animals,1,leopard.jpg,50,(unused),78.815857126202,85.8712646983004,7.00648940098161,animal,0.668354865365473,0,1,1
12,1,tool,0,0,animals,1,loom.jpg,14,(unused),88.4403164876639,92.69349424753,4.19617592762956,tool,0.898388404600155,0,2,1
13,1,tool,0,0,animals,1,clamp.jpg,31,(unused),95.2625633565713,102.801909333482,7.47753142097866,tool,0.66426357270484,0,2,1
14,1,animal,0,0,animals,1,hippo.jpg,45,(unused),105.370758418474,112.276137172555,6.86434306679137,animal,1.09448852644709,0,1,1
15,1,tool,0,0,animals,1,woodchipper.jpg,13,(unused),114.828442758375,122.584643924502,7.70161577010524,tool,0.666302804339466,0,2,1
16,1,tool,0,0,animals,1,plunger.jpg,30,(unused),125.13684366785,131.124897901534,5.93775020124436,tool,0.791455113260781,0,2,1
17,1,tool,0,0,animals,1,blower.jpg,27,(unused),133.677122341458,141.349910979493,7.63615544990043,tool,0.622786794383501,0,2,1
18,1,animal,0,0,animals,1,chinchilla.jpg,19,(unused),143.902092120225,148.78913190192,4.84908713719117,animal,0.729858001670436,0,1,1
19,1,tool,0,0,animals,1,vegetablepeeler.jpg,3,(unused),151.358134939599,157.496359756066,6.09395094132786,tool,0.784967931907886,0,2,1
20,1,animal,0,0,animals,1,rhino.jpg,35,(unused),160.06524123527,164.652013620392,4.5424530509256,animal,0.787576147014988,0,1,1
21,1,animal,0,0,animals,1,caterpillarpeacockmoth.jpg,1,(unused),167.204372448183,172.758761527036,5.50737682425055,animal,1.50416207939543,0,1,1
22,1,animal,0,0,animals,1,armadillo.jpg,57,(unused),175.310913480904,183.283990363272,7.91836828060368,animal,1.22618093795882,0,1,1
23,1,tool,0,0,animals,1,blender.jpg,24,(unused),185.836169579595,190.623326461553,4.73679651348798,tool,0.93318459850434,0,2,1
24,1,tool,0,0,animals,1,television.jpg,54,(unused),193.175484188647,197.39547456019,4.1699804681593,tool,0.96536295525766,0,2,1
25,1,tool,0,0,animals,1,viceclamp.jpg,4,(unused),199.964340002654,206.286006822739,6.2737057582863,tool,0.985159667149674,0,2,1
26,1,animal,0,0,animals,1,flounder.jpg,29,(unused),208.854928073053,215.493556854956,6.58541152274575,animal,0.787884693859269,0,1,1
27,1,tool,0,0,animals,1,bucket.jpg,22,(unused),218.04542848664,222.349088294822,4.26487916146406,tool,0.819627172067158,0,2,1
28,1,tool,0,0,animals,1,electricbreaker.jpg,41,(unused),224.901282264944,229.521570791523,4.5738892505478,tool,0.827431290365894,0,2,1
29,1,tool,0,0,animals,1,abacus.jpg,12,(unused),232.073794910713,236.327082682605,4.19836998442803,tool,0.712208929764529,0,2,1
30,1,animal,0,0,animals,1,emu.jpg,26,(unused),238.896007461001,243.6831213645,4.7482988011316,animal,0.821387685191439,0,1,1
31,1,tool,0,0,animals,1,flashlight.jpg,51,(unused),246.235316617562,251.322616451004,5.03313332710374,tool,1.60528333605998,0,2,1
32,1,tool,0,0,animals,1,sawblade.jpg,34,(unused),253.87483832505,259.178850620739,5.25933958177531,tool,0.77024556473134,0,2,1
33,1,tool,0,0,animals,1,floorbuffer.jpg,56,(unused),261.73117577138,269.687579256997,7.90603622178076,tool,0.717974778632197,0,2,1
34,1,animal,0,0,animals,1,beta.jpg,17,(unused),272.256448227544,279.695528026675,7.39395036549046,animal,0.980395472952296,0,1,1
35,1,tool,0,0,animals,1,scale.jpg,43,(unused),282.264595852776,290.053956503303,7.74977768372458,tool,0.854370124000525,0,2,1
36,1,animal,0,0,animals,1,squirel.jpg,46,(unused),292.606319821381,299.094794377973,6.43621883530071,animal,0.923813370145581,0,1,1
37,1,animal,0,0,animals,1,salamander.jpg,9,(unused),301.647005667773,308.419045358059,6.7132613418813,animal,0.873985300015192,0,1,1
38,1,tool,0,0,animals,1,washboard.jpg,59,(unused),310.971253119776,318.760814229531,7.73411961273121,tool,0.914562417321577,0,2,1
39,1,tool,0,0,animals,1,kettle.jpg,58,(unused),321.329669729218,329.336065821899,7.95913921519526,tool,0.576664493726639,0,2,1
40,1,animal,0,0,animals,1,heckcattle.jpg,37,(unused),331.888253056591,338.460174139161,6.5238632393626,animal,0.684912156131759,0,1,1
41,1,tool,0,0,animals,1,monkeywrench.jpg,16,(unused),341.029046317056,348.818586258316,7.74341778840573,tool,0.787957500650919,0,2,1
42,1,tool,0,0,animals,1,edger.jpg,40,(unused),351.370760663618,358.142639024317,6.72557427332896,tool,0.866183747594732,0,2,1
43,1,animal,0,0,animals,1,firebug.jpg,15,(unused),360.694998814312,367.867395995567,7.12413396898879,animal,0.943808616855677,0,1,1
44,1,tool,0,0,animals,1,workbench.jpg,11,(unused),370.419547021022,377.074712212141,6.60452311386331,tool,0.895897257681099,0,2,1
45,1,animal,0,0,animals,1,mountainsheep.jpg,7,(unused),379.627075850955,385.314918495913,5.6286608474494,animal,1.16603322676929,0,1,1
46,1,animal,0,0,animals,1,ferret.jpg,21,(unused),387.883797088502,392.987704888805,5.06691794549548,animal,0.934526552759962,0,1,1
47,1,tool,0,0,animals,1,nailgun.jpg,25,(unused),395.556689003132,400.010177170104,4.39171937946194,tool,0.635298016090928,0,2,1
48,1,animal,0,0,animals,1,yak.jpg,53,(unused),402.562264977019,407.416045525802,4.79575177882727,animal,0.778712000319501,0,1,1
49,1,animal,0,0,animals,1,herculesbeetle.jpg,28,(unused),409.985085127245,417.30759804564,7.27063394627302,animal,0.991548703665103,0,1,1
50,1,tool,0,0,animals,1,italiangardeningtool.jpg,2,(unused),419.859799392661,424.430072540009,4.51496639741873,tool,0.773326542882387,0,2,1
51,1,animal,0,0,animals,1,racoon.jpg,23,(unused),426.982247907515,433.604100016073,6.57841215031484,animal,0.717514524245416,0,1,1
52,1,tool,0,0,animals,1,anvil.jpg,6,(unused),436.156359736822,443.111857146729,6.90082877104031,tool,1.68328891748661,0,2,1
53,1,animal,0,0,animals,1,mahimahi.jpg,39,(unused),445.680775831165,452.536147224382,6.81844866844011,animal,0.795245877447087,0,1,1
54,1,animal,0,0,animals,1,porcupine.jpg,60,(unused),455.088420415991,463.128167792461,7.99495293631529,animal,0.700732398408945,0,1,1
55,1,animal,0,0,animals,1,rat.jpg,48,(unused),465.697001161449,473.052895512701,7.3123639198482,animal,0.646270031661516,0,1,1
56,1,tool,0,0,animals,1,spraybottle.jpg,49,(unused),475.60511482087,483.411315008756,7.75313577554756,tool,0.713320275724982,0,2,1
57,1,tool,0,0,animals,1,pressuregauge.jpg,38,(unused),485.980212203963,490.300249049972,4.26771856620712,tool,0.919570369940629,0,2,1
58,1,animal,0,0,animals,1,frog.jpg,5,(unused),492.852458736098,500.408363607449,7.51390394691912,animal,0.698771426056737,0,1,1
59,1,tool,0,0,animals,1,spoon.jpg,44,(unused),502.9770241004,508.665229817112,5.63391856031383,tool,0.760278090443535,0,2,1
60,1,animal,0,0,animals,1,quail.jpg,47,(unused),511.217397486984,517.87268427037,6.60746435613788,animal,0.760177700462009,0,1,1
