trial,phase,object,toShock,seenBefore,shockedCategory,responseSide,filename,num,name,onsetFixationCross,onsetStimulus,interTrialTime,response,reactionTime,wasShocked,buttonPressed,isResponseCorrect
1,1,animal,0,0,tools,1,giraffe.jpg,171,(unused),0.0382188401454187,4.49159489948897,4.27477597072978,animal,1.06184174645728,0,1,1
2,1,animal,0,0,tools,1,lemur.jpg,127,(unused),7.07735477063102,14.9169122093924,7.78880379712986,animal,0.603960019588385,0,1,1
3,1,animal,0,0,tools,1,dog.jpg,130,(unused),17.469087730288,22.739871677308,5.21375418838258,animal,0.583274938742761,0,1,1
4,1,tool,0,0,tools,1,jumpercables.jpg,167,(unused),25.3087846882249,30.5293821446139,5.15699002282801,tool,0.832922853283662,0,2,1
5,1,animal,0,0,tools,1,deer.jpg,142,(unused),33.0983894512492,38.7529236159671,5.60514294981969,animal,0.679569469815533,0,1,1
6,1,animal,0,0,tools,1,brown_bear.jpg,129,(unused),41.3050603280806,45.7752332131865,4.41766176744005,animal,1.09066640805895,0,1,1
7,1,animal,0,0,tools,1,duck.jpg,149,(unused),48.3274132243544,52.5139811520712,4.13552852500868,animal,1.26420805581597,0,1,1
8,1,tool,0,0,tools,1,pencil.jpg,161,(unused),55.0828829373072,62.4887926488361,7.34966067416684,tool,0.858744484914041,0,2,1
9,1,tool,0,0,tools,1,hairbrush.jpg,131,(unused),65.0409514915775,70.7621694073791,5.67868811115096,tool,0.834633647032433,0,2,1
10,1,animal,0,0,tools,1,lobsterspiny.jpg,155,(unused),73.33098748111,78.7352325845484,5.34709676130466,animal,0.897800552699209,0,1,1
11,1,tool,0,0,tools,1,smartphone.jpg,176,(unused),81.304084976789,86.6583379542406,5.29788304596125,tool,0.833009130658638,0,2,1
12,1,tool,0,0,tools,1,beadingtool.jpg,154,(unused),89.2271999684933,95.7490876404827,6.48252602447515,tool,0.844586656332694,0,2,1
13,1,tool,0,0,tools,1,telephone.jpg,138,(unused),98.3012172964541,103.505252704176,5.15644633410326,tool,0.775693691274455,0,2,1
14,1,animal,0,0,tools,1,crab.jpg,143,(unused),106.057501031629,112.512626052036,6.40528155716717,animal,0.705615615061106,0,1,1
15,1,animal,0,0,tools,1,prairiedog.jpg,152,(unused),115.064802214399,120.619306903687,5.49963681458004,animal,0.853143832413252,0,1,1
16,1,animal,0,0,tools,1,earthworm.jpg,137,(unused),123.171369526307,130.894161603286,7.6827532964192,animal,0.972641204160709,0,1,1
17,1,tool,0,0,tools,1,camera.jpg,133,(unused),133.446337765649,137.682973191781,4.18562484939608,tool,0.891143082537837,0,2,1
18,1,animal,0,0,tools,1,waterbuffalo.jpg,173,(unused),140.235145184605,145.622760885291,5.33833831330035,animal,0.759558539209593,0,1,1
19,1,tool,0,0,tools,1,binoculars.jpg,144,(unused),148.17490657795,154.346458714341,6.11754021756543,tool,1.01022766996675,0,2,1
20,1,tool,0,0,tools,1,ladder.jpg,158,(unused),156.915391931483,163.937564896131,6.96604928447714,tool,0.737383329425938,0,2,1
21,1,animal,0,0,tools,1,highlandcow.jpg,178,(unused),166.489730474281,173.712003764441,7.18234502567471,animal,0.70626862894801,0,1,1
22,1,animal,0,0,tools,1,beetle.jpg,125,(unused),176.264339010737,182.886290476667,6.57169642953039,animal,0.86319338256817,0,1,1
23,1,animal,0,0,tools,1,springhare.jpg,169,(unused),185.438422377774,189.808537242147,4.30773976322695,animal,0.987368976591142,0,1,1
24,1,tool,0,0,tools,1,drill.jpg,124,(unused),192.360730403399,199.933429996804,7.53374990790651,tool,0.987763799820414,0,2,1
25,1,tool,0,0,tools,1,glove.jpg,150,(unused),202.485579859001,209.791410702104,7.23710903556346,tool,0.794128824961035,0,2,1
26,1,animal,0,0,tools,1,mink.jpg,134,(unused),212.360254755268,218.948810462388,6.53765762713108,animal,0.717027962860811,0,1,1
27,1,tool,0,0,tools,1,typewriter.jpg,136,(unused),221.500925364607,226.304768781114,4.75822893272031,tool,0.701398928631761,0,2,1
28,1,tool,0,0,tools,1,wateringcan.jpg,123,(unused),228.87361989042,235.14523999029,6.22540846687928,tool,0.706235593373094,0,2,1
29,1,tool,0,0,tools,1,magnet.jpg,180,(unused),237.697401078168,245.386885598114,7.63412599291655,tool,0.742952550020391,0,2,1
30,1,animal,0,0,tools,1,aardvark.jpg,175,(unused),247.9390534214,254.110421777361,6.11909313304537,animal,0.825720456504769,0,1,1
31,1,animal,0,0,tools,1,gecko.jpg,122,(unused),256.662747401645,260.949484644701,4.22412994686539,animal,0.6098788399554,0,1,1
32,1,tool,0,0,tools,1,carpetblower.jpg,168,(unused),263.501654713123,268.839202915395,5.300053640604,tool,0.712431848421829,0,2,1
33,1,tool,0,0,tools,1,electricdrill.jpg,157,(unused),271.391396076646,279.130860534697,7.69667038492646,tool,0.724124196773118,0,2,1
34,1,animal,0,0,tools,1,elephantafrican.jpg,153,(unused),281.682978964988,286.069844790199,4.32840914182045,animal,0.670407389908632,0,1,1
35,1,tool,0,0,tools,1,caulkinggun.jpg,156,(unused),288.622003953674,292.725316138894,4.05003067387949,tool,0.889154533373585,0,2,1
36,1,tool,0,0,tools,1,ruler.jpg,166,(unused),295.277408910486,301.799221530781,6.47422691841034,tool,0.675479152478374,0,2,1
37,1,animal,0,0,tools,1,penguin.jpg,164,(unused),304.351418540837,310.573002894932,6.17043749749811,animal,0.737007750220755,0,1,1
38,1,animal,0,0,tools,1,sparrow.jpg,172,(unused),313.125162699875,320.464328041644,7.29443242019125,animal,0.645090272445259,0,1,1
39,1,animal,0,0,tools,1,chimp.jpg,141,(unused),323.033206734051,328.520868588321,5.43471132714752,animal,0.870845448045202,0,1,1
40,1,tool,0,0,tools,1,crutches.jpg,121,(unused),331.073039298211,337.294654442745,6.1782374178305,tool,0.851351572295698,0,2,1
41,1,tool,0,0,tools,1,oven.jpg,128,(unused),339.863504269116,345.918310287748,6.0063166773607,tool,0.773973275513526,0,2,1
42,1,tool,0,0,tools,1,dremel.jpg,165,(unused),348.487145681101,356.526856366442,7.97768003610182,tool,0.563732952932469,0,2,1
43,1,animal,0,0,tools,1,bluejay.jpg,139,(unused),359.079046961823,363.215613462275,4.08956438952573,animal,0.724293864919673,0,1,1
44,1,tool,0,0,tools,1,wheeldolly.jpg,148,(unused),365.767754343927,370.388088670359,4.57783222393293,tool,0.629065132052119,0,2,1
45,1,animal,0,0,tools,1,octopus.jpg,170,(unused),372.956972494506,378.811555025871,5.81014176578047,animal,0.638775987381678,0,1,1
46,1,tool,0,0,tools,1,pruner.jpg,135,(unused),381.363712585677,387.852272173676,6.44366720421605,tool,0.623410275549986,0,2,1
47,1,tool,0,0,tools,1,faxmachine.jpg,174,(unused),390.404439676228,398.344049362515,7.87554408163484,tool,0.717990484803067,0,2,1
48,1,tool,0,0,tools,1,chainsaw.jpg,179,(unused),400.89625407018,408.552374904691,7.59985934097364,tool,0.724087633127283,0,2,1
49,1,animal,0,0,tools,1,stickinsect.jpg,162,(unused),411.104484995905,418.510408178251,7.364819516979,animal,1.19948110125642,0,1,1
50,1,tool,0,0,tools,1,measuringdevice.jpg,145,(unused),421.079265381497,427.61779111605,6.48622407333589,tool,0.728267755910565,0,2,1
51,1,tool,0,0,tools,1,saw.jpg,163,(unused),430.16994899659,435.75769260589,5.53810304477401,tool,0.567639810572473,0,2,1
52,1,tool,0,0,tools,1,corkscrew.jpg,151,(unused),438.326552375006,442.529839831655,4.1534839163568,tool,0.625800062618055,0,2,1
53,1,animal,0,0,tools,1,fly.jpg,147,(unused),445.082032351439,452.538000580838,7.40936384119085,animal,0.672905584979389,0,1,1
54,1,animal,0,0,tools,1,shrimp.jpg,177,(unused),455.090098163436,462.846305243248,7.70690461079532,animal,0.843971489026671,0,1,1
55,1,animal,0,0,tools,1,angelfish.jpg,132,(unused),465.398477556806,472.53744186267,7.06829307913458,animal,0.809222875318028,0,1,1
56,1,tool,0,0,tools,1,lantern.jpg,140,(unused),475.106368344403,481.678234992296,6.51017744385092,tool,0.650679378531549,0,2,1
57,1,tool,0,0,tools,1,tape.jpg,126,(unused),484.247062367306,491.202598407995,6.90492164537481,tool,0.797729061149312,0,2,1
58,1,animal,0,0,tools,1,palmcockatoo.jpg,160,(unused),493.771450800236,500.560170658882,6.73656079857577,animal,1.10338542509999,0,1,1
59,1,animal,0,0,tools,1,moth.jpg,159,(unused),503.095657762018,510.901903474209,7.75564724089547,animal,0.796092998361246,0,1,1
60,1,animal,0,0,tools,1,otter.jpg,146,(unused),513.454043072926,518.407943692295,4.90112926751069,animal,0.713242342573039,0,1,1
