trial,phase,object,toShock,seenBefore,shockedCategory,responseSide,filename,num,name,onsetFixationCross,onsetStimulus,interTrialTime,response,reactionTime,wasShocked,buttonPressed,isResponseCorrect
1,2,tool,0,0,animals,2,ducttape.jpg,83,(unused),0.0315723920798519,6.46990386891139,6.32582542401833,1,0.777078126174274,0,1,0
2,2,animal,1,0,animals,2,turtle.jpg,78,(unused),10.856956764942,17.9793367479497,7.0784637594474,0,1.07895751759224,1,2,0
3,2,animal,1,0,animals,2,seal.jpg,107,(unused),22.5497904325312,29.5719055232453,6.97482838619969,0,1.98668269288009,1,2,0
4,2,animal,0,0,animals,2,stinkbug.jpg,62,(unused),34.1257234971126,42.6823481939009,8.5144072619984,0,1.77153395837513,0,2,1
5,2,tool,0,0,animals,2,wrench.jpg,118,(unused),47.0360841246052,56.0766063270953,8.99369321331281,1,0.892739101243478,0,1,0
6,2,tool,0,0,animals,2,generator.jpg,66,(unused),60.4302335297602,67.7692876471369,7.29738742418044,,4.30041311982859,0,,0
7,2,animal,1,0,animals,2,ram.jpg,97,(unused),72.0895478503335,80.7130008411723,8.57685177585829,1,1.52395091212338,1,1,1
8,2,tool,0,0,animals,2,mallet.jpg,82,(unused),85.2668470394274,92.6728054642626,7.36354347596355,0,1.11658704107185,0,2,1
9,2,tool,0,0,animals,2,eraser.jpg,117,(unused),97.0429673471631,106.283433036731,9.202326308915,0,1.56335472324963,0,2,1
10,2,animal,1,0,animals,2,cheetah.jpg,67,(unused),110.637219643041,119.193950181283,8.50296440929166,1,1.04311126224729,1,1,1
11,2,animal,1,0,animals,2,wasp.jpg,104,(unused),123.747776173442,133.055047385112,9.26759631756279,1,2.02040121426853,1,1,1
12,2,tool,0,0,animals,2,burnisher.jpg,95,(unused),137.60888460288,146.432537986872,8.77405324949954,0,1.9733832330885,0,2,1
13,2,tool,0,0,animals,2,carjack.jpg,88,(unused),150.786137927344,157.791552840277,6.95807497922395,0,1.49561715488971,0,2,1
14,2,animal,1,0,animals,2,caiman.jpg,64,(unused),162.145230718547,170.251659432243,8.05027797815866,1,2.91083670694934,1,1,1
15,2,animal,1,0,animals,2,catfish.jpg,87,(unused),174.805444050016,181.644172143641,6.79220489359063,1,1.16065172495337,1,1,1
16,2,animal,1,0,animals,2,kangaroo.jpg,115,(unused),186.197894539468,194.904814742389,8.65288763874398,1,1.68940740471089,1,1,1
17,2,tool,0,0,animals,2,pliers2.jpg,70,(unused),199.458570494311,209.066193773144,9.56850141730753,0,2.7404563416294,0,2,1
18,2,tool,0,0,animals,2,hammer.jpg,63,(unused),213.419782488008,222.84390362708,9.37513094944113,0,1.26516182174737,0,2,1
19,2,animal,1,0,animals,2,starfish.jpg,105,(unused),227.214197009968,235.820976443755,8.54981378195122,1,1.69344573727813,1,1,1
20,2,tool,0,0,animals,2,level.jpg,100,(unused),240.374783833477,247.346914495714,6.92713062300644,0,1.16181950899636,0,2,1
21,2,tool,0,0,animals,2,airhorn.jpg,89,(unused),251.700550037403,261.257936151196,9.520760669018,0,1.15419058528505,0,2,1
22,2,tool,0,0,animals,2,thermometer.jpg,79,(unused),265.611733020919,272.850745154519,7.18920556149344,0,1.90071922614288,0,2,1
23,2,animal,1,0,animals,2,goldfish.jpg,98,(unused),277.221058422772,283.525993104162,6.26139929834185,1,1.10669311024503,1,1,1
24,2,tool,0,0,animals,2,padlock.jpg,84,(unused),288.079766817058,297.070319986191,8.93361297921563,0,1.44084259879037,0,2,1
25,2,animal,0,0,animals,2,macaw.jpg,81,(unused),301.423861553498,309.413456376376,7.93509971350739,1,1.09003943855714,0,1,0
26,2,animal,0,0,animals,2,manatee.jpg,65,(unused),313.767079409529,321.389764568728,7.56886815842232,1,1.45699496686484,0,1,0
27,2,animal,1,0,animals,2,shark.jpg,110,(unused),325.726691593612,333.199258290566,7.42068135539245,1,2.81694731896641,1,1,1
28,2,tool,0,0,animals,2,avocadoslicer.jpg,76,(unused),337.753020457122,344.541587078384,6.75112885872892,0,1.20389148695767,0,2,1
29,2,tool,0,0,animals,2,keys.jpg,72,(unused),348.895299274943,357.18526637108,8.23767490947476,0,1.34057610283844,0,2,1
30,2,animal,0,0,animals,2,orangutan.jpg,73,(unused),361.538797354242,370.679336523438,9.08168785060173,1,1.07281229862701,0,1,0
31,2,tool,0,0,animals,2,stopwatch.jpg,111,(unused),375.032953141957,383.039294007246,7.959212912826,0,1.27722357799075,0,2,1
32,2,tool,0,0,animals,2,gardenhose.jpg,114,(unused),387.392892023328,394.381732806029,6.92963533326646,0,0.911138515459243,0,2,1
33,2,animal,1,0,animals,2,pelican.jpg,92,(unused),398.735335953818,405.89096362411,7.09894715716344,1,1.08317129038778,1,1,1
34,2,tool,0,0,animals,2,hoe.jpg,91,(unused),410.461405762351,418.200872212374,7.68956699116708,0,1.35568801734689,0,2,1
35,2,animal,0,0,animals,2,hedgehog.jpg,108,(unused),422.554469266261,430.911071575978,8.29587585858899,1,0.981762348196298,0,1,0
36,2,animal,1,0,animals,2,baboon.jpg,113,(unused),435.264702627423,441.619519103153,6.29557339148933,1,2.55473954962645,1,1,1
37,2,tool,0,0,animals,2,electricsander.jpg,103,(unused),446.173442277011,455.297331302567,9.08184840265381,0,1.12521568542525,0,2,1
38,2,animal,1,0,animals,2,dolphin.jpg,86,(unused),459.650945996696,465.889172016952,6.18846757532645,1,1.16171879924877,1,1,1
39,2,animal,1,0,animals,2,ant.jpg,112,(unused),470.44290595912,480.500935621027,9.99743884999938,1,1.54040316431747,1,1,1
40,2,animal,1,0,animals,2,cow.jpg,80,(unused),485.054690090022,494.278698074958,9.18184180615182,1,1.0199954886948,1,1,1
41,2,tool,0,0,animals,2,paintgun.jpg,94,(unused),498.832451581758,506.138078722842,7.25656472704285,0,1.53797394258208,0,2,1
42,2,animal,0,0,animals,2,prayingmantis.jpg,96,(unused),510.491812408424,516.596610842997,6.05393853761234,1,4.19879955082615,0,1,0
43,2,tool,0,0,animals,2,shoehorn.jpg,102,(unused),520.966859644182,530.874725941409,9.86355542901856,0,1.2590239796109,0,2,1
44,2,tool,0,0,animals,2,fishingpole.jpg,120,(unused),535.228339352612,541.816796347785,6.54287060119298,0,0.832230824923045,0,2,1
45,2,animal,0,0,animals,2,malaysianjunglenymph.jpg,85,(unused),546.170457227277,553.826507461555,7.60305405793491,1,2.03988790887524,0,1,0
46,2,tool,0,0,animals,2,magnifyingglass.jpg,74,(unused),558.180085913005,568.187995156203,9.94421853949078,0,1.02969826344088,0,2,1
47,2,animal,0,0,animals,2,crow.jpg,75,(unused),572.541617868625,581.231835007178,8.64139750834993,1,0.920228692698856,0,1,0
48,2,animal,1,0,animals,2,flea.jpg,77,(unused),585.585445852528,595.226547424722,9.58612243403375,1,1.27900235588095,1,1,1
49,2,animal,1,0,animals,2,baldeagle.jpg,71,(unused),599.796873137364,606.301989930201,6.45505799781946,1,0.984776905244871,1,1,1
50,2,tool,0,0,animals,2,stove.jpg,101,(unused),610.855765567487,618.044733295787,7.12950895532347,0,1.66639779334446,0,2,1
51,2,tool,0,0,animals,2,reflexhammer.jpg,93,(unused),622.398363385036,631.772412535883,9.3202244573212,0,0.877146409948637,0,2,1
52,2,animal,0,0,animals,2,dragonfly.jpg,68,(unused),636.12604198367,645.066470243851,8.89224470814457,1,1.57441034421663,0,1,0
53,2,tool,0,0,animals,2,tubeflaring.jpg,109,(unused),649.42005222335,655.875131666983,6.41286154070714,0,1.71912800572318,0,2,1
54,2,tool,0,0,animals,2,mixer.jpg,116,(unused),660.228720702577,668.635357474914,8.35361584905985,0,0.943241832113472,0,2,1
55,2,animal,1,0,animals,2,seaslug.jpg,119,(unused),672.989008090991,681.912689346566,8.88281358703831,1,1.44429591677545,1,1,1
56,2,tool,0,0,animals,2,curlingiron.jpg,99,(unused),686.483171576267,693.605347253195,7.07119111202516,0,1.1189556445197,0,2,1
57,2,animal,0,0,animals,2,gerbil.jpg,90,(unused),697.959050789999,704.447482800176,6.444354464348,1,1.57614133308698,0,1,0
58,2,tool,0,0,animals,2,lighterbic.jpg,69,(unused),708.801132133327,718.692236993021,9.84351255602581,0,2.80082798625517,0,2,1
59,2,tool,0,0,animals,2,clippers.jpg,61,(unused),723.062573995418,731.452550681432,8.34258878780385,0,0.726737685533863,0,2,1
60,2,animal,1,0,animals,2,rooster.jpg,106,(unused),735.806128491418,742.211190791943,6.35411022355608,1,1.53456937581223,1,1,1
