trial,phase,object,toShock,seenBefore,shockedCategory,responseSide,filename,num,name,onsetFixationCross,onsetStimulus,interTrialTime,response,reactionTime,wasShocked,buttonPressed,isResponseCorrect
1,3,tool,0,0,tools,1,blower.jpg,27,(unused),0.0185280933292233,6.40683557918237,6.32745914838765,tool,0.776260351623932,0,2,1
2,3,tool,0,0,tools,1,abacus.jpg,12,(unused),8.99247416690923,13.1123523133574,4.06801156807599,tool,0.614991383770757,0,2,1
3,3,animal,0,0,tools,1,rat.jpg,48,(unused),15.6812251327228,22.419827903037,6.70147612075905,animal,0.393781578652124,0,1,1
4,3,animal,0,0,tools,1,leopard.jpg,50,(unused),24.9721283571016,29.5924633902214,4.55846504841593,animal,0.594386099537587,0,1,1
5,3,tool,0,0,tools,1,pressuregauge.jpg,38,(unused),32.1613095886005,37.8324576683135,5.61136705318422,tool,0.549844700537506,0,2,1
6,3,tool,0,0,tools,1,electricbreaker.jpg,41,(unused),40.4013231107783,47.523663538017,7.08184701258916,tool,0.855918358558483,0,2,1
7,3,tool,0,0,tools,1,plunger.jpg,30,(unused),50.0758700167953,56.6477404232719,6.52306773131446,tool,0.912248043105137,0,2,1
8,3,animal,0,0,tools,1,panda.jpg,18,(unused),59.1999748059734,66.1888517243297,6.92617028782068,animal,1.3013955333081,0,1,1
9,3,animal,0,0,tools,1,rhino.jpg,35,(unused),68.7577315998587,76.113533579497,7.31359142964776,animal,1.65314887801105,0,1,1
10,3,animal,0,0,tools,1,ferret.jpg,21,(unused),78.6657458315003,84.8038125257299,6.08755146243661,animal,0.605165994984418,0,1,1
11,3,tool,0,0,tools,1,monkeywrench.jpg,16,(unused),87.3561626936826,94.1449399276717,6.7511232965052,tool,1.04841213871077,0,2,1
12,3,animal,0,0,tools,1,mountainsheep.jpg,7,(unused),96.7137896541335,101.200666951596,4.42468586159,animal,1.53296154325108,0,1,1
13,3,tool,0,0,tools,1,italiangardeningtool.jpg,2,(unused),103.769538488023,109.04042497646,5.22022497982559,tool,0.626477857906139,0,2,1
14,3,animal,0,0,tools,1,hippo.jpg,45,(unused),111.592556724039,116.012698097507,4.37894392887689,animal,0.574515618651276,0,1,1
15,3,animal,0,0,tools,1,phasmagigas.jpg,36,(unused),118.581561615565,123.902448729435,5.27336267715533,animal,1.01208924732418,0,1,1
16,3,tool,0,0,tools,1,workbench.jpg,11,(unused),126.45461992739,134.310883283988,7.80570170374716,tool,0.65202983441668,0,2,1
17,3,tool,0,0,tools,1,hourglass.jpg,10,(unused),136.86307853705,143.735237508594,6.82885693913082,tool,1.493054120132,0,2,1
18,3,tool,0,0,tools,1,anvil.jpg,6,(unused),146.287430516511,154.076983928633,7.73587761587708,tool,1.86273236863781,0,2,1
19,3,animal,0,0,tools,1,porcupine.jpg,60,(unused),156.629136203235,164.468830401882,7.79703081695683,animal,0.821224479042939,0,1,1
20,3,animal,0,0,tools,1,quail.jpg,47,(unused),167.020969526358,172.425214643414,5.3509666483493,animal,0.721145289629931,0,1,1
21,3,animal,0,0,tools,1,cat.jpg,8,(unused),174.977371729037,179.697643866071,4.6707907191806,animal,0.590970595025283,0,1,1
22,3,tool,0,0,tools,1,washboard.jpg,59,(unused),182.250002373126,190.239708390849,7.93715313447,tool,0.665337119809919,0,2,1
23,3,tool,0,0,tools,1,scale.jpg,43,(unused),192.80857896507,197.111949791228,4.25062525380637,tool,0.672197315696394,0,2,1
24,3,animal,0,0,tools,1,beta.jpg,17,(unused),199.664185777605,206.953332337676,7.24108871642202,animal,1.48236338895003,0,1,1
25,3,animal,0,0,tools,1,racoon.jpg,23,(unused),209.505491989179,217.445151516396,7.88697361529235,animal,0.874834974254554,0,1,1
26,3,animal,0,0,tools,1,squirel.jpg,46,(unused),219.997358636643,225.001303032783,4.95262197659004,animal,0.721972464589271,0,1,1
27,3,tool,0,0,tools,1,viceclamp.jpg,4,(unused),227.553494437027,235.359735678963,7.75814642566013,tool,0.905942076893552,0,2,1
28,3,animal,0,0,tools,1,tragopan.jpg,55,(unused),237.91190976353,245.317823663565,7.34797054048747,animal,0.708279014537766,0,1,1
29,3,tool,0,0,tools,1,television.jpg,54,(unused),247.870023406913,255.04244368107,7.12845596265194,tool,0.636023245242541,0,2,1
30,3,tool,0,0,tools,1,sawblade.jpg,34,(unused),257.594539506355,265.417380696781,7.78298667119043,tool,1.89552846054903,0,2,1
31,3,tool,0,0,tools,1,compass.jpg,32,(unused),267.969701357135,274.524921459764,6.51557850828056,tool,0.651218696195428,0,2,1
32,3,animal,0,0,tools,1,firebug.jpg,15,(unused),277.077110618866,282.948285576151,5.82199156755999,animal,1.95729876891346,0,1,1
33,3,animal,0,0,tools,1,cockatiel.jpg,20,(unused),285.500583785071,292.672992512778,7.12651387605919,animal,0.848910303946468,0,1,1
34,3,tool,0,0,tools,1,spoon.jpg,44,(unused),295.241857313773,299.42849191124,4.13188626443604,tool,1.79770371579798,0,2,1
35,3,animal,0,0,tools,1,armadillo.jpg,57,(unused),301.980673372707,307.768607394999,5.74559221640637,animal,0.731867773554768,0,1,1
36,3,tool,0,0,tools,1,blender.jpg,24,(unused),310.337438518845,314.423992323224,4.03354867254311,tool,0.752737022499787,0,2,1
37,3,animal,0,0,tools,1,flounder.jpg,29,(unused),316.976199764207,324.982475260616,7.96461108068454,animal,2.13869672987312,0,1,1
38,3,animal,0,0,tools,1,caterpillarpeacockmoth.jpg,1,(unused),327.551456488331,332.472053144798,4.87021755344373,animal,0.829313409814858,0,1,1
39,3,tool,0,0,tools,1,vegetablepeeler.jpg,3,(unused),335.040877853948,341.479318428692,6.38769202332851,tool,2.02047165040494,0,2,1
40,3,tool,0,0,tools,1,floorbuffer.jpg,56,(unused),344.031537416126,349.619268156725,5.52873040652025,tool,1.37081279993799,0,2,1
41,3,animal,0,0,tools,1,heckcattle.jpg,37,(unused),352.171479767259,357.392293785679,5.17790565460427,animal,1.42107771081464,0,1,1
42,3,tool,0,0,tools,1,spraybottle.jpg,49,(unused),359.944449909099,367.800718397453,7.80754728362241,tool,0.694610261063644,0,2,1
43,3,animal,0,0,tools,1,seahorse.jpg,42,(unused),370.336251158746,377.425230359417,7.0537635240552,animal,0.657865603463506,0,1,1
44,3,animal,0,0,tools,1,yak.jpg,53,(unused),379.977407651331,384.647601545119,4.61847740383392,animal,0.72876723058107,0,1,1
45,3,tool,0,0,tools,1,nailgun.jpg,25,(unused),387.216629279374,392.153711702756,4.89952449191091,tool,1.69397296108582,0,2,1
46,3,tool,0,0,tools,1,loom.jpg,14,(unused),394.706061229239,400.14368842062,5.38291079593186,tool,0.743277592078812,0,2,1
47,3,animal,0,0,tools,1,chinchilla.jpg,19,(unused),402.712541995897,407.032559277088,4.27726738043882,animal,0.716654040717913,0,1,1
48,3,tool,0,0,tools,1,shovel.jpg,52,(unused),409.601482131075,415.639613325066,5.9917736523946,tool,0.853939425058343,0,2,1
49,3,animal,0,0,tools,1,salamander.jpg,9,(unused),418.191813068413,422.361768495903,4.11412632963864,animal,2.10907238405161,0,1,1
50,3,tool,0,0,tools,1,bucket.jpg,22,(unused),424.930629127346,431.702705381394,6.72141054139529,tool,0.839447666179694,0,2,1
51,3,tool,0,0,tools,1,clamp.jpg,31,(unused),434.254869202448,441.393896818034,7.09167685301665,tool,0.562540986204112,0,2,1
52,3,tool,0,0,tools,1,kettle.jpg,58,(unused),443.96276707152,451.101663185849,7.09734216289836,tool,0.687149970433893,0,2,1
53,3,animal,0,0,tools,1,mahimahi.jpg,39,(unused),453.653935415254,458.924695534195,5.22338328762875,animal,1.42343960162543,0,1,1
54,3,tool,0,0,tools,1,flashlight.jpg,51,(unused),461.476990856503,467.581855729344,6.06197174436865,tool,1.03167138765821,0,2,1
55,3,animal,0,0,tools,1,herculesbeetle.jpg,28,(unused),470.150722134013,474.587516377209,4.38535769779896,animal,2.11424423213612,0,1,1
56,3,tool,0,0,tools,1,edger.jpg,40,(unused),477.139729591418,484.612259781379,7.43622940367304,,2.50449921947984,0,,0
57,3,animal,0,0,tools,1,frog.jpg,5,(unused),487.131177840382,491.417761088213,4.24277237767473,animal,0.792529622571237,0,1,1
58,3,tool,0,0,tools,1,woodchipper.jpg,13,(unused),493.970124085556,499.107448920273,5.08781891853324,tool,0.958428717489369,0,2,1
59,3,animal,0,0,tools,1,partridge.jpg,33,(unused),501.676358624136,509.34914052674,7.62704569623286,animal,0.588804993894883,0,1,1
60,3,animal,0,0,tools,1,emu.jpg,26,(unused),511.901329044371,516.171345379393,4.22098200960476,animal,0.560919992702111,0,1,1
