trial,phase,object,toShock,seenBefore,shockedCategory,responseSide,filename,num,name,onsetFixationCross,onsetStimulus,interTrialTime,response,reactionTime,wasShocked,buttonPressed,isResponseCorrect
1,1,animal,0,0,animals,1,leopard.jpg,50,(unused),0.0184641486084729,5.83955848219193,5.75795195513825,animal,1.36617262641084,0,1,1
2,1,tool,0,0,animals,1,spoon.jpg,44,(unused),8.40858032120013,15.3307125137508,6.86982029266223,tool,0.945239493088593,0,2,1
3,1,animal,0,0,animals,1,rhino.jpg,35,(unused),17.882889791701,25.171991518815,7.2511612627867,animal,1.41328858186898,0,1,1
4,1,tool,0,0,animals,1,spraybottle.jpg,49,(unused),27.7241797016723,32.0774331020002,4.29226971690333,tool,0.630102929913846,0,2,1
5,1,animal,0,0,animals,1,quail.jpg,47,(unused),34.6464427531682,42.6194142871791,7.919557386713,animal,0.601384202553163,0,1,1
6,1,animal,0,0,animals,1,yak.jpg,53,(unused),45.1882613268644,51.5766522782251,6.33037547040592,animal,0.646419244203571,0,1,1
7,1,tool,0,0,animals,1,plunger.jpg,30,(unused),54.128827311044,59.900064065987,5.72150573532858,tool,0.774352785821975,0,2,1
8,1,tool,0,0,animals,1,television.jpg,54,(unused),62.4521967620894,66.9890776557513,4.49261929319831,tool,0.626554984701215,0,2,1
9,1,animal,0,0,animals,1,flounder.jpg,29,(unused),69.5412440287873,74.4951342118329,4.90965543371954,animal,0.507647182203073,0,1,1
10,1,animal,0,0,animals,1,squirel.jpg,46,(unused),77.0472640213411,82.8351859331888,5.73757747180317,animal,0.785947914660937,0,1,1
11,1,tool,0,0,animals,1,anvil.jpg,6,(unused),85.3873558342857,92.1258393651406,6.69909906621898,tool,0.710580860133632,0,2,1
12,1,tool,0,0,animals,1,edger.jpg,40,(unused),94.6781875936213,101.166519177361,6.45203624993387,tool,0.569110473861656,0,2,1
13,1,animal,0,0,animals,1,heckcattle.jpg,37,(unused),103.718768620165,110.407403552897,6.63211079031968,animal,0.634578434110153,0,1,1
14,1,animal,0,0,animals,1,emu.jpg,26,(unused),112.976279458526,118.564012522958,5.5476599089041,animal,0.960176015272737,0,1,1
15,1,animal,0,0,animals,1,porcupine.jpg,60,(unused),121.116164783754,128.505369433995,7.34137606194892,animal,0.468181343283504,0,1,1
16,1,tool,0,0,animals,1,workbench.jpg,11,(unused),131.074217115143,137.812724700954,6.69087792796483,tool,0.481114568978228,0,2,1
17,1,tool,0,0,animals,1,abacus.jpg,12,(unused),140.365036045172,146.603262188033,6.18767527732175,tool,1.06988552445182,0,2,1
18,1,animal,0,0,animals,1,armadillo.jpg,57,(unused),149.155456464814,155.760650217839,6.54901738306763,animal,1.14370568513186,0,1,1
19,1,tool,0,0,animals,1,washboard.jpg,59,(unused),158.312841608025,166.20241461978,7.84667585249724,tool,0.874210348425549,0,2,1
20,1,animal,0,0,animals,1,partridge.jpg,33,(unused),168.754612424622,174.175519257864,5.37219831766092,animal,0.639389424723049,0,1,1
21,1,tool,0,0,animals,1,scale.jpg,43,(unused),176.727707761456,183.132780662396,6.35837386624163,tool,0.851429666414333,0,2,1
22,1,tool,0,0,animals,1,kettle.jpg,58,(unused),185.70159306295,193.074020826727,7.32385024313,tool,0.793527470003028,0,2,1
23,1,tool,0,0,animals,1,monkeywrench.jpg,16,(unused),195.626280853714,200.279887925997,4.61284953831793,tool,0.645963162296539,0,2,1
24,1,animal,0,0,animals,1,beta.jpg,17,(unused),202.832082202778,210.037794388154,7.1518881134666,animal,0.6173169205249,0,1,1
25,1,tool,0,0,animals,1,italiangardeningtool.jpg,2,(unused),212.60663212659,218.37784290218,5.72305610061153,tool,0.809442547681101,0,2,1
26,1,tool,0,0,animals,1,vegetablepeeler.jpg,3,(unused),220.930023708188,226.234157215105,5.25469103266497,tool,0.85147681412127,0,2,1
27,1,animal,0,0,animals,1,ferret.jpg,21,(unused),228.803016763366,235.474953068413,6.62039391930703,animal,0.701951546641794,0,1,1
28,1,tool,0,0,animals,1,woodchipper.jpg,13,(unused),238.027018410648,244.015001518299,5.93182146133874,tool,0.742198690433725,0,2,1
29,1,animal,0,0,animals,1,racoon.jpg,23,(unused),246.567362576086,253.656282832635,7.03675444380636,animal,0.677132929002255,0,1,1
30,1,tool,0,0,animals,1,hourglass.jpg,10,(unused),256.208472939892,264.064672430504,7.81138054466963,tool,0.689024094132037,0,2,1
31,1,animal,0,0,animals,1,panda.jpg,18,(unused),266.616843935262,272.037780275914,5.37833558119457,animal,0.68822065869972,0,1,1
32,1,animal,0,0,animals,1,rat.jpg,48,(unused),274.589968779506,281.612158992604,6.96694257066022,animal,1.57622977777282,0,1,1
33,1,animal,0,0,animals,1,cat.jpg,8,(unused),284.164338836414,288.751272955669,4.54515474745672,animal,0.628242680209951,0,1,1
34,1,tool,0,0,animals,1,pressuregauge.jpg,38,(unused),291.320128655138,298.408891431925,7.03033728311593,tool,0.943017136160051,0,2,1
35,1,animal,0,0,animals,1,herculesbeetle.jpg,28,(unused),300.961220416444,306.982522520677,5.98491631263218,animal,0.578633027947944,0,1,1
36,1,tool,0,0,animals,1,clamp.jpg,31,(unused),309.551488552195,315.38940242969,5.79069445002174,tool,0.6899494079953,0,2,1
37,1,animal,0,0,animals,1,seahorse.jpg,42,(unused),317.941562708806,324.079781186152,6.09170635885824,animal,0.625905821700144,0,1,1
38,1,tool,0,0,animals,1,blender.jpg,24,(unused),326.631928635958,333.904340715908,7.21978051007784,tool,0.832661992037174,0,2,1
39,1,animal,0,0,animals,1,hippo.jpg,45,(unused),336.473212772744,344.462876519781,7.93052934754909,animal,0.654454881456331,0,1,1
40,1,animal,0,0,animals,1,mahimahi.jpg,39,(unused),347.015048024539,353.219922776814,6.15759252260758,animal,0.813613997273933,0,1,1
41,1,animal,0,0,animals,1,phasmagigas.jpg,36,(unused),355.788784249471,361.97692926299,6.15180628520044,animal,0.585947016610589,0,1,1
42,1,tool,0,0,animals,1,viceclamp.jpg,4,(unused),364.529172611878,370.116908883636,5.53762243713177,tool,0.402185457001906,0,2,1
43,1,tool,0,0,animals,1,shovel.jpg,52,(unused),372.669083916455,378.340234747106,5.62537168132089,tool,0.757115647924365,0,2,1
44,1,animal,0,0,animals,1,chinchilla.jpg,19,(unused),380.892371291997,388.26488020115,7.32668098375526,animal,0.431760540690448,0,1,1
45,1,animal,0,0,animals,1,tragopan.jpg,55,(unused),390.81703534854,395.220360576961,4.36206402244491,animal,0.461552760418272,0,1,1
46,1,animal,0,0,animals,1,caterpillarpeacockmoth.jpg,1,(unused),397.789310571843,401.859192776341,4.02433316132822,animal,0.582943675537535,0,1,1
47,1,tool,0,0,animals,1,bucket.jpg,22,(unused),404.428038853828,409.648656771049,5.16706621928699,tool,0.399637235641421,0,2,1
48,1,animal,0,0,animals,1,firebug.jpg,15,(unused),412.217635631878,416.904622639959,4.63135576118207,animal,0.446905859866092,0,1,1
49,1,tool,0,0,animals,1,flashlight.jpg,51,(unused),419.456807294759,426.078518782215,6.57223906743151,tool,0.389358073101903,0,2,1
50,1,animal,0,0,animals,1,mountainsheep.jpg,7,(unused),428.630872142421,434.752246379438,6.07892633606459,animal,0.488909335970675,0,1,1
51,1,tool,0,0,animals,1,loom.jpg,14,(unused),437.304523084524,443.526148423178,6.17497495851675,tool,0.618218179435644,0,2,1
52,1,tool,0,0,animals,1,electricbreaker.jpg,41,(unused),446.094968200585,450.781966434308,4.63841243876703,tool,0.579629865205789,0,2,1
53,1,tool,0,0,animals,1,blower.jpg,27,(unused),453.33410522433,459.388885408567,6.00748009620555,tool,0.873976855014917,0,2,1
54,1,animal,0,0,animals,1,salamander.jpg,9,(unused),461.94107872315,469.080006981978,7.08692321102226,animal,0.401224221077428,0,1,1
55,1,tool,0,0,animals,1,nailgun.jpg,25,(unused),471.648912074284,476.636134724686,4.92392719690903,tool,0.634355524878629,0,2,1
56,1,tool,0,0,animals,1,compass.jpg,32,(unused),479.204984009499,485.059566045067,5.80284463558895,tool,0.465171266823745,0,2,1
57,1,tool,0,0,animals,1,sawblade.jpg,34,(unused),487.611749416938,492.882620696957,5.21618596018244,tool,0.524365695313463,0,2,1
58,1,animal,0,0,animals,1,cockatiel.jpg,20,(unused),495.451426362124,501.306063884451,5.80652593860405,animal,0.571234365852433,0,1,1
59,1,tool,0,0,animals,1,floorbuffer.jpg,56,(unused),503.858230257487,507.97792513805,4.06598268468093,tool,0.621531669035903,0,2,1
60,1,animal,0,0,animals,1,frog.jpg,5,(unused),510.530257650626,516.168013791776,5.58270422416132,animal,0.565703971780749,0,1,1
