trial,phase,object,toShock,seenBefore,shockedCategory,responseSide,filename,num,name,onsetFixationCross,onsetStimulus,interTrialTime,response,reactionTime,wasShocked,buttonPressed,isResponseCorrect
1,2,animal,1,0,animals,2,yak.jpg,53,(unused),0.0314245347708493,7.7873990443004,7.63709988309793,0,1.5044542748401,1,2,0
2,2,tool,0,0,animals,2,flashlight.jpg,51,(unused),12.3747408554264,18.5795944237743,6.15280621466339,0,1.16956100953212,0,2,1
3,2,tool,0,0,animals,2,electricbreaker.jpg,41,(unused),22.9331844215649,29.5717592695946,6.59433270274542,0,0.859627083464147,0,2,1
4,2,animal,0,0,animals,2,chinchilla.jpg,19,(unused),33.9253746051872,42.1818861799129,8.2161022695978,0,1.02392573469115,0,2,1
5,2,animal,1,0,animals,2,beta.jpg,17,(unused),46.5521869396289,53.9746864593344,7.37897262794657,0,0.869369308207752,1,2,0
6,2,animal,1,0,animals,2,mountainsheep.jpg,7,(unused),58.52847749174,66.4513716717756,7.87618835468176,0,1.82815143870539,1,2,0
7,2,tool,0,0,animals,2,abacus.jpg,12,(unused),71.005189324911,77.7271027716197,6.67160379697702,0,1.26865875924523,0,2,1
8,2,tool,0,0,animals,2,monkeywrench.jpg,16,(unused),82.0807193901383,91.2545386405181,9.13349441476642,0,1.02864530134502,0,2,1
9,2,tool,0,0,animals,2,hourglass.jpg,10,(unused),95.6082396114689,104.548652476529,8.88537356187809,0,1.11883825673067,0,2,1
10,2,animal,1,0,animals,2,salamander.jpg,9,(unused),108.90230533773,117.292230706675,8.34181808980811,1,2.00874646653028,1,1,1
11,2,tool,0,0,animals,2,sawblade.jpg,34,(unused),121.845972987865,129.151755363082,7.25776718488157,0,0.845438234728135,0,2,1
12,2,animal,1,0,animals,2,leopard.jpg,50,(unused),133.505332852337,140.877697199676,7.31817259802651,1,1.22780908971254,1,1,1
13,2,tool,0,0,animals,2,pressuregauge.jpg,38,(unused),145.431594714999,155.072582106717,9.59744112725812,0,0.923327922915632,0,2,1
14,2,tool,0,0,animals,2,workbench.jpg,11,(unused),159.426174028897,165.831072114803,6.35757067830406,0,0.736223324938692,0,2,1
15,2,animal,1,0,animals,2,hippo.jpg,45,(unused),170.184854872332,177.073625446867,6.83732212675993,1,1.26699287890733,1,1,1
16,2,animal,0,0,animals,2,cockatiel.jpg,20,(unused),181.644052831451,187.915551876793,6.23554410689392,0,1.09337248216798,0,2,1
17,2,tool,0,0,animals,2,spoon.jpg,44,(unused),192.269248357501,201.409814788889,9.08976950264159,0,0.772477230248114,0,2,1
18,2,animal,1,0,animals,2,frog.jpg,5,(unused),205.763368864731,213.419435135595,7.59667317983977,0,1.44418430215592,1,2,0
19,2,animal,1,0,animals,2,herculesbeetle.jpg,28,(unused),217.973247336291,225.746047108956,7.71769880897003,0,1.34194723077053,1,2,0
20,2,animal,1,0,animals,2,seahorse.jpg,42,(unused),230.299811841365,238.673075520332,8.32307378127869,1,1.13019793132844,1,1,1
21,2,tool,0,0,animals,2,clamp.jpg,31,(unused),243.226867514932,251.099740382348,7.83066251402437,0,0.758937542428612,0,2,1
22,2,animal,1,0,animals,2,rat.jpg,48,(unused),255.453353472818,264.076815444145,8.57205622092458,0,1.20225415174355,1,2,0
23,2,tool,0,0,animals,2,spraybottle.jpg,49,(unused),268.630602307039,277.220574117931,8.53829443065024,0,0.813781055840082,0,2,1
24,2,tool,0,0,animals,2,blower.jpg,27,(unused),281.574344366925,290.714882894657,9.09448897969166,0,0.739914305098864,0,2,1
25,2,tool,0,0,animals,2,viceclamp.jpg,4,(unused),295.06849598513,301.223238756718,6.11483513216738,0,0.705792623990419,0,2,1
26,2,animal,0,0,animals,2,heckcattle.jpg,37,(unused),305.576956084986,315.368088559677,9.74468520454777,1,0.84740752723701,0,1,0
27,2,tool,0,0,animals,2,edger.jpg,40,(unused),319.721610241621,329.162475498713,9.39830393759156,0,0.606443420638243,0,2,1
28,2,tool,0,0,animals,2,shovel.jpg,52,(unused),333.51604753553,342.222821164072,8.66409215583281,0,1.11044182211299,0,2,1
29,2,animal,1,0,animals,2,cat.jpg,8,(unused),346.576549717949,355.400037283662,8.78836778881719,1,1.16653201955887,1,1,1
30,2,tool,0,0,animals,2,floorbuffer.jpg,56,(unused),359.953958212398,368.060356777318,8.0486226194579,0,0.72263007492802,0,2,1
31,2,tool,0,0,animals,2,woodchipper.jpg,13,(unused),372.413942605595,381.187572752577,8.72590142153667,0,0.786778655803573,0,2,1
32,2,animal,0,0,animals,2,armadillo.jpg,57,(unused),385.541171730854,393.630964092372,8.04851574090378,0,0.636663721606965,0,2,1
33,2,animal,1,0,animals,2,partridge.jpg,33,(unused),397.984512074312,407.725602068094,9.70074522141405,0,1.24343353344193,1,2,0
34,2,tool,0,0,animals,2,kettle.jpg,58,(unused),412.279299446851,419.184757690633,6.86631210382987,0,0.641664249209498,0,2,1
35,2,animal,0,0,animals,2,rhino.jpg,35,(unused),423.538400929881,432.979175740642,9.38775855687456,1,0.940646792105326,0,1,0
36,2,animal,0,0,animals,2,phasmagigas.jpg,36,(unused),437.332817696964,445.572632621956,8.19507426203945,1,1.49547346710278,0,1,0
37,2,animal,0,0,animals,2,flounder.jpg,29,(unused),449.926238335598,455.997708579236,6.0295643550879,0,1.78877200318675,0,2,1
38,2,tool,0,0,animals,2,compass.jpg,32,(unused),460.351276767271,468.124137478955,7.7249563634766,0,0.733658754435965,0,2,1
39,2,animal,1,0,animals,2,mahimahi.jpg,39,(unused),472.477714326747,478.782493132541,6.2656815804489,0,1.26453575351661,1,2,0
40,2,animal,1,0,animals,2,squirel.jpg,46,(unused),483.336427532007,492.226780275916,8.84098023920079,0,1.47063953394718,1,2,0
41,2,tool,0,0,animals,2,scale.jpg,43,(unused),496.780524481497,504.536673148328,7.69978970877535,0,0.804156218890057,0,2,1
42,2,animal,1,0,animals,2,porcupine.jpg,60,(unused),508.890284635141,515.895820784648,6.95541347363527,1,1.32536123346654,1,1,1
43,2,tool,0,0,animals,2,blender.jpg,24,(unused),520.449584875592,527.204912790057,6.70171401549419,0,0.688550730403222,0,2,1
44,2,animal,1,0,animals,2,caterpillarpeacockmoth.jpg,1,(unused),531.558471356144,541.449616307298,9.84234198139434,1,2.03020020852273,1,1,1
45,2,animal,0,0,animals,2,tragopan.jpg,55,(unused),546.003447110432,553.159076384381,7.10411780802447,0,2.07905822734574,0,2,1
46,2,tool,0,0,animals,2,bucket.jpg,22,(unused),557.529380030684,564.735032862376,7.16016360547546,0,0.574459416169702,0,2,1
47,2,tool,0,0,animals,2,nailgun.jpg,25,(unused),569.088641141872,577.128337139558,7.99794098065408,0,0.586550679725406,0,2,1
48,2,tool,0,0,animals,2,washboard.jpg,59,(unused),581.481902120277,588.420730570844,6.89339624610822,0,1.02646592958808,0,2,1
49,2,animal,1,0,animals,2,emu.jpg,26,(unused),592.774337888146,600.430350276085,7.60213563885162,0,1.43118119843712,1,2,0
50,2,animal,1,0,animals,2,firebug.jpg,15,(unused),604.984136818248,612.139775393418,7.10205300082652,1,2.14711043348143,1,1,1
51,2,tool,0,0,animals,2,anvil.jpg,6,(unused),616.693548785581,624.616476642443,7.86393384498645,0,0.579665212047985,0,2,1
52,2,animal,1,0,animals,2,ferret.jpg,21,(unused),628.970082676817,637.276620375138,8.24705479918922,1,1.26388242308531,1,1,1
53,2,tool,0,0,animals,2,loom.jpg,14,(unused),641.83043546242,651.337870183099,9.45753347960087,0,0.585047410348125,0,2,1
54,2,animal,1,0,animals,2,panda.jpg,18,(unused),655.691568908929,663.56442958854,7.82075424242288,1,1.31987736322299,1,1,1
55,2,tool,0,0,animals,2,plunger.jpg,30,(unused),668.11823665753,674.556441124616,6.39234560715685,0,0.681183203010733,0,2,1
56,2,tool,0,0,animals,2,vegetablepeeler.jpg,3,(unused),678.910203355319,686.849823371669,7.88844843730443,0,0.55304223758867,0,2,1
57,2,tool,0,0,animals,2,italiangardeningtool.jpg,2,(unused),691.203418501167,698.776076895309,7.51260559692091,0,0.611242528746516,0,2,1
58,2,animal,0,0,animals,2,racoon.jpg,23,(unused),703.14631382942,711.252739977263,8.0659350420333,1,1.06783422224726,0,1,0
59,2,animal,0,0,animals,2,quail.jpg,47,(unused),715.589623382639,722.378374745347,6.73711568627838,1,1.25652419691141,0,1,0
60,2,tool,0,0,animals,2,television.jpg,54,(unused),726.731974365088,734.471391101701,7.6938440918901,0,0.612883392015647,0,2,1
