trial,phase,object,toShock,seenBefore,shockedCategory,responseSide,filename,num,name,onsetFixationCross,onsetStimulus,interTrialTime,response,reactionTime,wasShocked,buttonPressed,isResponseCorrect
1,2,animal,1,0,animals,1,phasmagigas.jpg,36,(unused),0.0316656942686677,10.139523267595,9.98964669096037,1,1.94056503624961,1,1,1
2,2,tool,0,0,animals,1,scale.jpg,43,(unused),14.7434103431024,22.0159440688403,7.23241494045721,0,1.8744102787241,0,2,1
3,2,tool,0,0,animals,1,kettle.jpg,58,(unused),26.369491730049,33.2248876075555,6.81418541454358,0,1.51683647275422,0,2,1
4,2,animal,1,0,animals,1,panda.jpg,18,(unused),37.5951934989789,47.0026545517303,9.3491846368352,0,1.55945593969045,1,2,0
5,2,tool,0,0,animals,1,vegetablepeeler.jpg,3,(unused),51.5731470448445,59.2458454983735,7.6280831006133,0,2.56264016379646,0,2,1
6,2,animal,1,0,animals,1,armadillo.jpg,57,(unused),63.5994544193327,70.8217695824678,7.16402422735695,1,1.20700421862784,1,1,1
7,2,tool,0,0,animals,1,flashlight.jpg,51,(unused),75.3755795380421,84.8497126885159,9.43020997075618,0,0.824378061228344,0,2,1
8,2,tool,0,0,animals,1,television.jpg,54,(unused),89.2033347594752,98.1604243889051,8.90737007509526,0,0.841124424370719,0,2,1
9,2,tool,0,0,animals,1,spoon.jpg,44,(unused),102.514035875716,110.370265334857,7.80845763019058,0,0.781542741871817,0,2,1
10,2,animal,1,0,animals,1,caterpillarpeacockmoth.jpg,1,(unused),114.723868803378,124.581641623357,9.81338209410479,1,0.616638549234267,1,1,1
11,2,animal,0,0,animals,1,beta.jpg,17,(unused),129.152099798182,138.776503437717,9.57057821272524,1,0.948175998986699,0,1,0
12,2,tool,0,0,animals,1,woodchipper.jpg,13,(unused),143.13000042332,149.735188707249,6.55120877482679,0,0.901804933602762,0,2,1
13,2,animal,1,0,animals,1,heckcattle.jpg,37,(unused),154.088821683084,164.113235778472,9.96923825832678,1,1.34916372426414,1,1,1
14,2,animal,0,0,animals,1,mountainsheep.jpg,7,(unused),168.683861375233,176.323214959777,7.58087666430051,1,1.2466056004705,0,1,0
15,2,animal,1,0,animals,1,chinchilla.jpg,19,(unused),180.693516040226,190.15097018121,9.40712851545475,1,3.39922609053974,1,1,1
16,2,tool,0,0,animals,1,shovel.jpg,52,(unused),194.721471975543,201.560165430146,6.79099844290085,0,1.05421374076832,0,2,1
17,2,tool,0,0,animals,1,bucket.jpg,22,(unused),205.913775954765,214.804025423071,8.8454761462921,0,1.09380646285354,0,2,1
18,2,animal,1,0,animals,1,firebug.jpg,15,(unused),219.157744354996,226.663662656299,7.44795861786625,1,1.22849997647063,1,1,1
19,2,animal,1,0,animals,1,tragopan.jpg,55,(unused),231.217434124073,240.424558472707,9.15949543811041,1,1.38799919885787,1,1,1
20,2,tool,0,0,animals,1,italiangardeningtool.jpg,2,(unused),244.978491909978,253.601975049596,8.58649011532127,0,0.855862365742723,0,2,1
21,2,tool,0,0,animals,1,pressuregauge.jpg,38,(unused),257.955606101041,267.296316156075,9.28896974059778,0,0.864971466151474,0,2,1
22,2,tool,0,0,animals,1,blower.jpg,27,(unused),271.666596068233,279.606073679719,7.88685370673375,0,0.915567209207438,0,2,1
23,2,animal,1,0,animals,1,salamander.jpg,9,(unused),283.976492789425,292.483225428459,8.45936969898783,1,1.14378960840259,1,1,1
24,2,animal,1,0,animals,1,frog.jpg,5,(unused),297.037003310867,303.291896473542,6.20545217272517,1,0.91740949197083,1,1,1
25,2,animal,1,0,animals,1,quail.jpg,47,(unused),307.862307180078,315.368293797228,7.44793209160649,1,0.945359654117055,1,1,1
26,2,tool,0,0,animals,1,spraybottle.jpg,49,(unused),319.922032229639,329.045912274709,9.07396637904115,0,1.03406665963303,0,2,1
27,2,animal,0,0,animals,1,squirel.jpg,46,(unused),333.416198280769,342.456623301559,8.99761488820588,1,0.734791288716224,0,1,0
28,2,animal,0,0,animals,1,partridge.jpg,33,(unused),346.810319782267,353.715723180932,6.85365740672136,1,0.916929677379812,0,1,0
29,2,animal,0,0,animals,1,porcupine.jpg,60,(unused),358.069346534818,365.558581657117,7.4446776368712,1,3.37446752933101,0,1,0
30,2,tool,0,0,animals,1,viceclamp.jpg,4,(unused),369.912149845153,378.168733263774,8.20197863850364,0,0.797618134341974,0,2,1
31,2,tool,0,0,animals,1,hourglass.jpg,10,(unused),382.52232807254,391.229209466926,8.65354010828669,0,0.967493988731803,0,2,1
32,2,tool,0,0,animals,1,clamp.jpg,31,(unused),395.599508943718,402.68847285531,7.03615574264613,0,0.956568264093221,0,2,1
33,2,animal,1,0,animals,1,flounder.jpg,29,(unused),407.042020195786,415.665502052476,8.57526846838354,0,2.39901986007135,1,2,0
34,2,animal,0,0,animals,1,rhino.jpg,35,(unused),420.235936172427,427.808517270232,7.53544936293537,1,1.68432191394095,0,1,0
35,2,tool,0,0,animals,1,plunger.jpg,30,(unused),432.178855555556,439.484667758819,7.26125245593896,0,0.898411913174641,0,2,1
36,2,animal,1,0,animals,1,rat.jpg,48,(unused),443.83823113588,453.629171813029,9.75199803703572,1,2.14333865966182,1,1,1
37,2,tool,0,0,animals,1,electricbreaker.jpg,41,(unused),458.183121286884,464.287885403168,6.04862410734468,0,0.867957798811403,0,2,1
38,2,animal,0,0,animals,1,seahorse.jpg,42,(unused),468.641537302172,476.764612952191,8.06895675026338,0,2.06951135891723,0,2,1
39,2,animal,1,0,animals,1,ferret.jpg,21,(unused),481.101522978295,489.941842221779,8.79496416467009,1,2.52976965696689,1,1,1
40,2,animal,0,0,animals,1,yak.jpg,53,(unused),494.49556942858,502.084928962699,7.55001389273597,1,2.2529099023468,0,1,0
41,2,tool,0,0,animals,1,abacus.jpg,12,(unused),506.438570277558,516.346411878445,9.86240239121926,0,0.83989890862722,0,2,1
42,2,tool,0,0,animals,1,monkeywrench.jpg,16,(unused),520.699996103065,528.78972495971,8.04610809455423,0,1.0019838698081,0,2,1
43,2,tool,0,0,animals,1,anvil.jpg,6,(unused),533.143350558717,541.866842005284,8.66496971450521,0,0.898114594909202,0,2,1
44,2,animal,1,0,animals,1,herculesbeetle.jpg,28,(unused),546.220510582336,553.392901444829,7.12409373564218,0,2.60745039782159,1,2,0
45,2,tool,0,0,animals,1,nailgun.jpg,25,(unused),557.946596427453,566.670136945966,8.67121964503328,0,0.746501202307627,0,2,1
46,2,animal,1,0,animals,1,racoon.jpg,23,(unused),571.023749074242,577.445394485487,6.3854029816627,1,1.27664308438034,1,1,1
47,2,tool,0,0,animals,1,washboard.jpg,59,(unused),581.999252871545,591.23988213427,9.18335255456693,0,1.01654925753428,0,2,1
48,2,tool,0,0,animals,1,floorbuffer.jpg,56,(unused),595.610214646424,605.25114270278,9.600375045518,0,0.812603680567918,0,2,1
49,2,tool,0,0,animals,1,loom.jpg,14,(unused),609.604784338369,618.511819940548,8.84901660190105,0,1.0062989938142,0,2,1
50,2,animal,1,0,animals,1,cat.jpg,8,(unused),622.865404485899,632.339596009539,9.41887075583459,1,1.15498121960263,1,1,1
51,2,tool,0,0,animals,1,blender.jpg,24,(unused),636.893354327314,643.265038402762,6.32225400286243,0,0.91672857861704,0,2,1
52,2,tool,0,0,animals,1,edger.jpg,40,(unused),647.61863738104,655.491496777724,7.82600016800503,0,0.707321261892503,0,2,1
53,2,tool,0,0,animals,1,compass.jpg,32,(unused),659.82845876236,665.99996649953,6.12504687905251,0,0.711549467614532,0,2,1
54,2,animal,1,0,animals,1,cockatiel.jpg,20,(unused),670.353530197322,676.508387470123,6.10643267867087,1,1.55443777184337,1,1,1
55,2,animal,0,0,animals,1,leopard.jpg,50,(unused),681.062175615943,688.985057287444,7.86912282229814,1,1.39105224370724,0,1,0
56,2,animal,0,0,animals,1,emu.jpg,26,(unused),693.338705979131,699.426804235922,6.033066518623,1,1.85262040993439,0,1,0
57,2,tool,0,0,animals,1,sawblade.jpg,34,(unused),703.780437211757,712.604055956728,8.77569078402106,0,0.744703180514989,0,2,1
58,2,tool,0,0,animals,1,workbench.jpg,11,(unused),716.957658463052,725.847999339889,8.83461628548197,0,0.772124456123493,0,2,1
59,2,animal,1,0,animals,1,hippo.jpg,45,(unused),730.201639692552,736.823501533532,6.57657341363592,1,3.02106515957348,1,1,1
60,2,animal,1,0,animals,1,mahimahi.jpg,39,(unused),741.377317903742,748.849718461686,7.42736451280779,0,1.72316091658104,1,2,0
