trial,phase,object,toShock,seenBefore,shockedCategory,responseSide,filename,num,name,onsetFixationCross,onsetStimulus,interTrialTime,response,reactionTime,wasShocked,buttonPressed,isResponseCorrect
1,2,tool,1,0,tools,2,shovel.jpg,52,(unused),0.0318371762768948,6.48644362911546,6.33171864730759,1,3.30783327315748,1,1,1
2,2,animal,0,0,tools,2,hippo.jpg,45,(unused),11.0734203712127,17.7617467092787,6.61841288339581,0,1.72891023008469,0,2,1
3,2,tool,1,0,tools,2,plunger.jpg,30,(unused),22.1151126166333,31.8890265860637,9.71408044821049,1,2.45032408886254,1,1,1
4,2,animal,0,0,tools,2,frog.jpg,5,(unused),36.4425046229753,43.2473222167964,6.74539230621123,0,0.997459877883557,0,2,1
5,2,tool,1,0,tools,2,italiangardeningtool.jpg,2,(unused),47.6008696611334,55.6902577018882,8.02509484610013,1,1.9600571653491,1,1,1
6,2,animal,0,0,tools,2,beta.jpg,17,(unused),60.2436584412499,66.7984486120813,6.48998105461174,0,2.13136906192267,0,2,1
7,2,tool,1,0,tools,2,viceclamp.jpg,4,(unused),71.1518174060657,77.373024068922,6.16490251783045,1,0.734246326886023,1,1,1
8,2,animal,0,0,tools,2,salamander.jpg,9,(unused),81.9265268025611,91.1501094830355,9.16084257942197,0,0.686759651892316,0,2,1
9,2,tool,0,0,tools,2,anvil.jpg,6,(unused),95.5033775656902,105.293946751487,9.73899714624245,1,1.14655979442796,0,1,0
10,2,tool,1,0,tools,2,blender.jpg,24,(unused),109.663963384894,116.935963839057,7.20257704423236,1,1.18606172879117,1,1,1
11,2,animal,0,0,tools,2,flounder.jpg,29,(unused),121.489483571742,130.296042765948,8.74052897764636,0,0.834550321148527,0,2,1
12,2,animal,0,0,tools,2,chinchilla.jpg,19,(unused),134.649052976281,143.822823640547,9.11947958813548,0,0.725357108706703,0,2,1
13,2,tool,0,0,tools,2,abacus.jpg,12,(unused),148.176145927707,157.916640413922,9.67553000429658,1,1.59614800055351,0,1,0
14,2,animal,0,0,tools,2,tragopan.jpg,55,(unused),162.286728892353,169.992423444512,7.6323072554796,0,0.768839065021893,0,2,1
15,2,tool,0,0,tools,2,flashlight.jpg,51,(unused),174.345723600839,181.517669593907,7.1156727303654,1,0.702173617154585,0,1,0
16,2,tool,1,0,tools,2,bucket.jpg,22,(unused),185.871003106853,194.277228029251,8.341100518187,1,0.866171754315474,1,1,1
17,2,tool,1,0,tools,2,loom.jpg,14,(unused),198.830733328784,208.838060238402,9.95073569604307,1,1.02800427714737,1,1,1
18,2,animal,0,0,tools,2,firebug.jpg,15,(unused),213.391622949808,222.414937301942,8.95330873189883,0,0.56164282354257,0,2,1
19,2,tool,0,0,tools,2,pressuregauge.jpg,38,(unused),226.768313793608,234.190393694257,7.35593581522322,1,1.088773942638,0,1,0
20,2,tool,1,0,tools,2,sawblade.jpg,34,(unused),238.543776600658,246.583088017409,7.96798781759515,1,1.20155780265304,1,1,1
21,2,animal,0,0,tools,2,herculesbeetle.jpg,28,(unused),251.119758488014,258.558617088665,7.37835270314236,0,0.70456021908376,0,2,1
22,2,tool,1,0,tools,2,spraybottle.jpg,49,(unused),262.912031427264,272.55258723834,9.57655926898885,1,1.04628659089121,1,1,1
23,2,animal,0,0,tools,2,ferret.jpg,21,(unused),277.105986694755,285.845729694836,8.6829972478753,0,0.607764443057931,0,2,1
24,2,animal,0,0,tools,2,heckcattle.jpg,37,(unused),290.199144033436,299.956334148844,9.68695041471294,0,0.721699106421511,0,2,1
25,2,animal,0,0,tools,2,phasmagigas.jpg,36,(unused),304.309683057152,314.300389710706,9.92706787215416,0,0.662276535153069,0,2,1
26,2,tool,1,0,tools,2,spoon.jpg,44,(unused),318.653770051214,324.924952626742,6.20216549449065,1,0.789187885447973,1,1,1
27,2,tool,0,0,tools,2,blower.jpg,27,(unused),329.478514055201,335.733151427059,6.20401934337633,1,0.746448113902261,0,1,0
28,2,animal,0,0,tools,2,porcupine.jpg,60,(unused),340.103162607941,346.257695804512,6.09400333082368,0,1.17637804575861,0,2,1
29,2,animal,0,0,tools,2,yak.jpg,53,(unused),350.611008790308,360.234774675596,9.55660266218836,0,0.73290404371437,0,2,1
30,2,animal,0,0,tools,2,quail.jpg,47,(unused),364.604820175306,370.759163175004,6.09453775527817,0,0.785971216888356,0,2,1
31,2,tool,0,0,tools,2,woodchipper.jpg,13,(unused),375.112678545669,384.636417232483,9.46478467874063,1,0.857339627273177,0,1,0
32,2,animal,0,0,tools,2,mahimahi.jpg,39,(unused),388.989740802591,395.411059915741,6.36072796412007,0,0.854135467446213,0,2,1
33,2,animal,0,0,tools,2,emu.jpg,26,(unused),399.764441218458,406.36922398027,6.54851165155154,0,0.654545176531428,0,2,1
34,2,tool,1,0,tools,2,workbench.jpg,11,(unused),410.72267937317,420.012845392911,9.22559912825067,1,0.770473539343584,1,1,1
35,2,tool,1,0,tools,2,floorbuffer.jpg,56,(unused),424.566381483169,432.639079988728,8.00038690804694,1,0.775769544055038,1,1,1
36,2,animal,0,0,tools,2,caterpillarpeacockmoth.jpg,1,(unused),437.192506707765,443.39704596626,6.13667590575506,0,0.68928930239872,0,2,1
37,2,animal,0,0,tools,2,rat.jpg,48,(unused),447.750398723409,453.988397236473,6.17633012234844,0,0.692397241209619,0,2,1
38,2,tool,1,0,tools,2,hourglass.jpg,10,(unused),458.341657300711,465.663748491292,7.26203720802099,1,1.04656050004905,1,1,1
39,2,tool,1,0,tools,2,clamp.jpg,31,(unused),470.233858651525,476.755356671617,6.45493317945028,1,0.834438063297057,1,1,1
40,2,animal,0,0,tools,2,cockatiel.jpg,20,(unused),481.308853631996,489.715097157123,8.34629473756443,0,0.691179403886053,0,2,1
41,2,tool,1,0,tools,2,washboard.jpg,59,(unused),494.068395389029,502.090923615465,7.95953463347706,1,0.818977270473624,1,1,1
42,2,animal,0,0,tools,2,seahorse.jpg,42,(unused),506.644476063295,514.316834844522,7.6116892994894,0,0.601513284395878,0,2,1
43,2,tool,1,0,tools,2,compass.jpg,32,(unused),518.653468879435,526.575929815305,7.85799414939991,1,0.806042920789878,1,1,1
44,2,tool,1,0,tools,2,scale.jpg,43,(unused),531.129463660406,537.650922229882,6.45837167357819,1,0.871539604051577,1,1,1
45,2,animal,0,0,tools,2,squirel.jpg,46,(unused),542.204450301722,548.909371236913,6.63692073291182,0,0.474456319630917,0,2,1
46,2,tool,0,0,tools,2,electricbreaker.jpg,41,(unused),553.262712126803,560.084356531134,6.75728053518081,1,0.67308311744091,0,1,0
47,2,animal,0,0,tools,2,cat.jpg,8,(unused),564.43772532512,571.526263734304,7.0167600378172,0,0.683674806125055,0,2,1
48,2,animal,0,0,tools,2,rhino.jpg,35,(unused),575.879631886815,585.386638701188,9.43002920417583,0,0.681910754168712,0,2,1
49,2,animal,0,0,tools,2,leopard.jpg,50,(unused),589.740039568845,598.346247684639,8.54723600546331,0,0.553867523990448,0,2,1
50,2,tool,0,0,tools,2,edger.jpg,40,(unused),602.69971558627,611.456012449914,8.7113285807434,1,0.973699380972903,0,1,0
51,2,tool,0,0,tools,2,vegetablepeeler.jpg,3,(unused),615.809536801208,622.831451458299,6.95723617133695,1,0.922743296885528,0,1,0
52,2,tool,1,0,tools,2,monkeywrench.jpg,16,(unused),627.184699334541,637.108714239817,9.86198273230208,1,0.78913015283797,1,1,1
53,2,animal,0,0,tools,2,armadillo.jpg,57,(unused),641.645541871414,649.81820759768,8.10773710832542,0,0.721175664096336,0,2,1
54,2,tool,1,0,tools,2,kettle.jpg,58,(unused),654.17154367652,660.292674068184,6.05062877598904,1,0.856176635928932,1,1,1
55,2,animal,0,0,tools,2,mountainsheep.jpg,7,(unused),664.846254099373,672.268393977788,7.35285794260613,0,0.646963601958305,0,2,1
56,2,animal,0,0,tools,2,racoon.jpg,23,(unused),676.621700228113,683.827043252827,7.13603732592407,0,0.621846388723498,0,2,1
57,2,animal,0,0,tools,2,partridge.jpg,33,(unused),688.180369388829,696.636581128947,8.39556887846431,0,0.600808305087412,0,2,1
58,2,tool,1,0,tools,2,nailgun.jpg,25,(unused),701.006591347619,710.580416280537,9.51379666126627,1,2.84566930100027,1,1,1
59,2,tool,0,0,tools,2,television.jpg,54,(unused),715.133897204078,723.33988875844,8.14014669237808,1,0.709669234286594,0,1,0
60,2,animal,0,0,tools,2,panda.jpg,18,(unused),727.693273589261,734.681710068316,6.92138084936686,0,0.963403411542458,0,2,1
