trial,phase,object,toShock,seenBefore,shockedCategory,responseSide,filename,num,name,onsetFixationCross,onsetStimulus,interTrialTime,response,reactionTime,wasShocked,buttonPressed,isResponseCorrect
1,1,tool,0,0,animals,1,curlingiron.jpg,99,(unused),0.0184182266348216,4.80547676754395,4.7140344938559,tool,2.34681048231323,0,2,1
2,1,animal,0,0,animals,1,orangutan.jpg,73,(unused),7.35763238911932,12.3447457109996,4.95079297485088,animal,0.779644297437699,0,1,1
3,1,animal,0,0,animals,1,catfish.jpg,87,(unused),14.8970511142688,20.2178972942438,5.27339961459974,animal,1.02171973930126,0,1,1
4,1,animal,0,0,animals,1,seaslug.jpg,119,(unused),22.7700073719207,30.6762562192907,7.86174133400116,animal,1.0897347405662,0,1,1
5,1,tool,0,0,animals,1,fishingpole.jpg,120,(unused),33.2284298018421,38.7660764844659,5.48760701280386,tool,1.01014196716278,0,2,1
6,1,tool,0,0,animals,1,thermometer.jpg,79,(unused),41.3182433316506,48.3404405296751,6.97365437435822,tool,1.05896630915777,0,2,1
7,1,animal,0,0,animals,1,cheetah.jpg,67,(unused),50.8926131500302,57.7146529329457,6.77428653094906,animal,0.678005069901701,0,1,1
8,1,tool,0,0,animals,1,shoehorn.jpg,102,(unused),60.2835052042556,66.6049825841728,6.27531685220533,tool,0.709937436571636,0,2,1
9,1,tool,0,0,animals,1,airhorn.jpg,89,(unused),69.1572610459825,75.4956111573247,6.29842196983897,tool,0.701676350719936,0,2,1
10,1,tool,0,0,animals,1,tubeflaring.jpg,109,(unused),78.0644445054659,84.0191328168166,5.89732108362067,tool,0.635269498096022,0,2,1
11,1,animal,0,0,animals,1,ram.jpg,97,(unused),86.5879600710541,93.2932381277806,6.6507759053737,animal,0.79243315239728,0,1,1
12,1,animal,0,0,animals,1,stinkbug.jpg,62,(unused),95.8454360859378,102.467286380577,6.5656171690183,animal,0.658705041132635,0,1,1
13,1,animal,0,0,animals,1,shark.jpg,110,(unused),105.019450020447,112.425263795294,7.36024841038062,animal,0.665107166172675,0,1,1
14,1,tool,0,0,animals,1,wrench.jpg,118,(unused),114.994141725138,121.115583247254,6.07498263734739,tool,0.602941669267238,0,2,1
15,1,animal,0,0,animals,1,malaysianjunglenymph.jpg,85,(unused),123.651085517873,129.772547566818,6.07020752472588,animal,0.630082946117909,0,1,1
16,1,animal,0,0,animals,1,baboon.jpg,113,(unused),132.324699339613,138.26273301708,5.89225685730763,animal,0.726197570489603,0,1,1
17,1,tool,0,0,animals,1,avocadoslicer.jpg,76,(unused),140.814859131342,147.303121474461,6.43554536423236,tool,0.754253894821886,0,2,1
18,1,animal,0,0,animals,1,crow.jpg,75,(unused),149.85545702651,157.211170909475,7.31962388514108,animal,0.568290460158096,0,1,1
19,1,tool,0,0,animals,1,ducttape.jpg,83,(unused),159.780103684438,163.866601169419,4.04288751966044,tool,0.67404852391337,0,2,1
20,1,tool,0,0,animals,1,reflexhammer.jpg,93,(unused),166.418774110507,170.73878157714,4.27781114606028,tool,0.664135349185017,0,2,1
21,1,animal,0,0,animals,1,macaw.jpg,81,(unused),173.290921482863,178.094707784478,4.76104321869653,animal,0.91634751575657,0,1,1
22,1,animal,0,0,animals,1,prayingmantis.jpg,96,(unused),180.646879442638,188.502893370091,7.79858113710175,animal,0.600504429239663,0,1,1
23,1,animal,0,0,animals,1,seal.jpg,107,(unused),191.071905365776,195.25849134063,4.13367600794283,animal,0.486059347964328,0,1,1
24,1,tool,0,0,animals,1,generator.jpg,66,(unused),197.81060205977,205.666843706715,7.808258047566,tool,0.677984543073762,0,2,1
25,1,tool,0,0,animals,1,stove.jpg,101,(unused),208.219005101462,212.422305687021,4.15495908143044,tool,1.20771685079308,0,2,1
26,1,animal,0,0,animals,1,caiman.jpg,64,(unused),214.974443026891,222.2802010265,7.24842905371124,animal,0.582180066237925,0,1,1
27,1,animal,0,0,animals,1,flea.jpg,77,(unused),224.849044317323,232.421660054151,7.51293295944602,animal,0.874919567006145,0,1,1
28,1,tool,0,0,animals,1,burnisher.jpg,95,(unused),234.973840692799,241.879307917068,6.85963916918834,tool,2.03365256141115,0,2,1
29,1,tool,0,0,animals,1,hammer.jpg,63,(unused),244.448123304235,249.852330854836,5.34872877546777,tool,0.754692335025538,0,2,1
30,1,animal,0,0,animals,1,wasp.jpg,104,(unused),252.404486476413,259.81036888784,7.36350133204772,animal,0.742985949482318,0,1,1
31,1,tool,0,0,animals,1,eraser.jpg,117,(unused),262.362505265515,266.782630729334,4.36931965289986,tool,0.864994845936963,0,2,1
32,1,animal,0,0,animals,1,hedgehog.jpg,108,(unused),269.334780577739,274.905633893994,5.50993356560759,animal,0.809138461885595,0,1,1
33,1,animal,0,0,animals,1,goldfish.jpg,98,(unused),277.457980992382,283.529390938464,6.0224723261291,animal,0.871626935591848,0,1,1
34,1,animal,0,0,animals,1,starfish.jpg,105,(unused),286.081574142965,290.535025873327,4.39523397779667,animal,0.672193732614687,0,1,1
35,1,tool,0,0,animals,1,carjack.jpg,88,(unused),293.087216133925,300.309565936082,7.16500092939368,tool,0.651996938069715,0,2,1
36,1,tool,0,0,animals,1,paintgun.jpg,94,(unused),302.861599038157,310.901398952907,7.99264567658877,tool,0.689466737174371,0,2,1
37,1,animal,0,0,animals,1,kangaroo.jpg,115,(unused),313.453560347654,318.774377341044,5.27388631550074,animal,0.540636012618052,0,1,1
38,1,tool,0,0,animals,1,mixer.jpg,116,(unused),321.326560224814,328.749046273788,7.37558287447426,tool,0.802249786887842,0,2,1
39,1,tool,0,0,animals,1,mallet.jpg,82,(unused),331.284540205383,337.472727914239,6.14641495779185,tool,0.734888116057846,0,2,1
40,1,animal,0,0,animals,1,cow.jpg,80,(unused),340.041575695306,347.347348769305,7.26517985682284,animal,0.881554543242601,0,1,1
41,1,animal,0,0,animals,1,dragonfly.jpg,68,(unused),349.916167363786,355.420517607912,5.46393402063744,animal,0.641593364605797,0,1,1
42,1,tool,0,0,animals,1,magnifyingglass.jpg,74,(unused),357.972667135587,365.161644806567,7.14132059122786,tool,0.592743684810557,0,2,1
43,1,tool,0,0,animals,1,keys.jpg,72,(unused),367.713819351313,374.102182756984,6.3422679689699,tool,0.976435633578149,0,2,1
44,1,tool,0,0,animals,1,electricsander.jpg,103,(unused),376.654345434657,381.074514838714,4.37436231482969,tool,0.930329492561214,0,2,1
45,1,animal,0,0,animals,1,pelican.jpg,92,(unused),383.626608238346,389.180957023142,5.50155007547774,animal,0.741038466729151,0,1,1
46,1,tool,0,0,animals,1,level.jpg,100,(unused),391.733093721548,398.505100645503,6.72030236551103,tool,1.11624128942458,0,2,1
47,1,tool,0,0,animals,1,hoe.jpg,91,(unused),401.073953879009,406.761752379973,5.64084023254903,tool,1.07075351908316,0,2,1
48,1,tool,0,0,animals,1,padlock.jpg,84,(unused),409.313911529598,415.318563101135,5.96102601919973,tool,0.932124627766825,0,2,1
49,1,animal,0,0,animals,1,baldeagle.jpg,71,(unused),417.870751758073,423.608631869214,5.69741203305455,animal,0.827409904160959,0,1,1
50,1,animal,0,0,animals,1,ant.jpg,112,(unused),426.160790698108,430.547543389286,4.33591076807368,animal,0.919639826439379,0,1,1
51,1,animal,0,0,animals,1,rooster.jpg,106,(unused),433.099681049889,441.005934387504,7.85921389471118,animal,0.909525552948253,0,1,1
52,1,tool,0,0,animals,1,clippers.jpg,61,(unused),443.558097065177,450.196588522969,6.59130939964354,tool,1.01119877804376,0,2,1
53,1,tool,0,0,animals,1,stopwatch.jpg,111,(unused),452.748782953078,459.720931897022,6.91590490291281,tool,0.95209434428034,0,2,1
54,1,tool,0,0,animals,1,pliers2.jpg,70,(unused),462.289805978086,467.860850771151,5.52675330729045,tool,0.75631138854078,0,2,1
55,1,animal,0,0,animals,1,dolphin.jpg,86,(unused),470.413031089067,477.63536325098,7.18275756856502,animal,0.917094179105334,0,1,1
56,1,animal,0,0,animals,1,manatee.jpg,65,(unused),480.187523683533,488.077120142141,7.85057552225294,animal,0.913664595263981,0,1,1
57,1,animal,0,0,animals,1,turtle.jpg,78,(unused),490.62923021982,496.317030324442,5.63421446041135,animal,1.00499294079054,0,1,1
58,1,tool,0,0,animals,1,lighterbic.jpg,69,(unused),498.869140722853,504.840558398568,5.92154444122963,tool,0.753699670478454,0,2,1
59,1,tool,0,0,animals,1,gardenhose.jpg,114,(unused),507.3927095299,512.530098151816,5.09406877458634,tool,0.596375971070302,0,2,1
60,1,animal,0,0,animals,1,gerbil.jpg,90,(unused),515.09889814386,520.936605669285,5.78910146025937,animal,0.711189893776464,0,1,1
