trial,phase,object,toShock,seenBefore,shockedCategory,responseSide,filename,num,name,onsetFixationCross,onsetStimulus,interTrialTime,response,reactionTime,wasShocked,buttonPressed,isResponseCorrect
1,2,tool,0,0,animals,2,stove.jpg,101,(unused),0.0313834813887297,9.888968994067,9.74000317826573,1,1.06717479764211,0,1,0
2,2,tool,0,0,animals,2,magnifyingglass.jpg,74,(unused),14.27604337912,21.3148410073736,6.99556167692337,0,1.83267150998199,0,2,1
3,2,tool,0,0,animals,2,shoehorn.jpg,102,(unused),25.6686000307582,33.1745362930351,7.44901672558442,0,0.970175274569556,0,2,1
4,2,animal,1,0,animals,2,turtle.jpg,78,(unused),37.5280999908273,45.5843678736228,8.01335897468064,1,0.67977615286145,1,1,1
5,2,tool,0,0,animals,2,lighterbic.jpg,69,(unused),50.1382743694339,58.4447998799506,8.26357133616835,0,0.8588695149665,0,2,1
6,2,tool,0,0,animals,2,airhorn.jpg,89,(unused),62.8151375238103,70.8548078629619,7.9836090936015,0,0.806997901291652,0,2,1
7,2,tool,0,0,animals,2,gardenhose.jpg,114,(unused),75.2084171046527,83.9986948294209,8.73590054816358,0,0.916484470812975,0,2,1
8,2,animal,1,0,animals,2,shark.jpg,110,(unused),88.352274243065,96.1751508149309,7.76148378310065,1,0.750434624620539,1,1,1
9,2,tool,0,0,animals,2,ducttape.jpg,83,(unused),100.745592632441,109.28571632582,8.4968982159479,0,1.01924561776286,0,2,1
10,2,animal,1,0,animals,2,ram.jpg,97,(unused),113.639307927268,119.977566309351,6.28878424977923,1,0.918611242575025,1,1,1
11,2,tool,0,0,animals,2,padlock.jpg,84,(unused),124.531371453951,133.15488762893,8.57567779387754,0,0.824658349720266,0,2,1
12,2,animal,1,0,animals,2,dolphin.jpg,86,(unused),137.508487890134,146.115291058065,8.55711982160073,1,0.889799274408688,1,1,1
13,2,animal,1,0,animals,2,flea.jpg,77,(unused),150.669015057551,158.275042054819,7.55780113138996,1,1.01329091341449,1,1,1
14,2,tool,0,0,animals,2,hammer.jpg,63,(unused),162.828817050641,172.152689013273,9.28567146434563,0,0.66202589956356,0,2,1
15,2,tool,0,0,animals,2,tubeflaring.jpg,109,(unused),176.506470167143,185.563631929127,9.00893046395231,0,0.72346654287503,0,2,1
16,2,tool,0,0,animals,2,carjack.jpg,88,(unused),189.917230586673,196.255547021188,6.29972549542119,0,1.03673992718086,0,2,1
17,2,animal,0,0,animals,2,seaslug.jpg,119,(unused),200.592483347291,209.115871582404,8.46694488787187,1,1.12989965059478,0,1,0
18,2,animal,1,0,animals,2,manatee.jpg,65,(unused),213.486189661631,220.908682125239,7.38154161185498,1,1.09042014679289,1,1,1
19,2,animal,0,0,animals,2,gerbil.jpg,90,(unused),225.462475402767,233.652227640752,8.14146332666918,1,0.921199547223296,0,1,0
20,2,tool,0,0,animals,2,mallet.jpg,82,(unused),238.005859333661,244.510981578936,6.46164313219481,0,0.606716683756531,0,2,1
21,2,animal,0,0,animals,2,stinkbug.jpg,62,(unused),248.864621290137,255.853422622841,6.93276044864962,0,1.22766764676908,0,2,1
22,2,animal,0,0,animals,2,starfish.jpg,105,(unused),260.207073880382,267.679595995633,7.42763071374263,1,2.23585111555258,0,1,0
23,2,animal,0,0,animals,2,cow.jpg,80,(unused),272.033222877566,279.755981772979,7.67230531710168,1,0.816701638233098,0,1,0
24,2,tool,0,0,animals,2,generator.jpg,66,(unused),284.109573695159,293.41678396781,9.26875591183352,0,0.83234532586448,0,2,1
25,2,animal,0,0,animals,2,baboon.jpg,113,(unused),297.787195379957,306.627593202702,8.79483532978626,1,1.27793014961117,0,1,0
26,2,animal,1,0,animals,2,ant.jpg,112,(unused),310.981213028538,320.572086736911,9.5431241759559,0,1.31881766548395,1,2,0
27,2,animal,1,0,animals,2,seal.jpg,107,(unused),325.125892202243,332.981946221155,7.81800971197478,1,1.41324812780931,1,1,1
28,2,tool,0,0,animals,2,pliers2.jpg,70,(unused),337.552519217921,344.374364316708,6.77494038711536,0,0.765197583062218,0,2,1
29,2,tool,0,0,animals,2,level.jpg,100,(unused),348.744836026411,355.366716790561,6.56922491760635,0,0.682165283136783,0,2,1
30,2,animal,1,0,animals,2,dragonfly.jpg,68,(unused),359.720321542008,365.825164879016,6.05383025049573,0,0.885010750444053,1,2,0
31,2,animal,1,0,animals,2,macaw.jpg,81,(unused),370.378923838254,380.169957527589,9.73549844971589,0,1.50862282419621,1,2,0
32,2,tool,0,0,animals,2,clippers.jpg,61,(unused),384.740449058509,392.563262125502,7.76533038208087,0,0.855712873784796,0,2,1
33,2,animal,0,0,animals,2,hedgehog.jpg,108,(unused),396.916907930604,404.689668894736,7.72284319938087,1,1.34262397434031,0,1,0
34,2,tool,0,0,animals,2,wrench.jpg,118,(unused),409.043268514477,418.534152518338,9.44219787124716,0,0.656492315909418,0,2,1
35,2,tool,0,0,animals,2,stopwatch.jpg,111,(unused),422.88772776247,432.545233477107,9.60621205398131,0,0.812814691017593,0,2,1
36,2,animal,1,0,animals,2,baldeagle.jpg,71,(unused),436.899026818781,446.089481779875,9.13110050461051,1,0.838950153325641,1,1,1
37,2,tool,0,0,animals,2,reflexhammer.jpg,93,(unused),450.643386672027,458.799809436151,8.11276298551399,0,0.872906016155866,0,2,1
38,2,animal,1,0,animals,2,goldfish.jpg,98,(unused),463.153439204669,472.577551042523,9.3764980179427,0,1.08463382657555,1,2,0
39,2,tool,0,0,animals,2,thermometer.jpg,79,(unused),477.131277607861,484.136901317117,6.95859515996458,0,0.907489550882019,0,2,1
40,2,animal,1,0,animals,2,pelican.jpg,92,(unused),488.490443846618,496.363329864032,7.81591140937455,1,0.80145405422445,1,1,1
41,2,tool,0,0,animals,2,avocadoslicer.jpg,76,(unused),500.900436113778,508.089405125003,7.14270414927362,0,0.795817515702765,0,2,1
42,2,tool,0,0,animals,2,electricsander.jpg,103,(unused),512.443045156936,519.01485008408,6.50854032409007,0,0.796480147350849,0,2,1
43,2,animal,1,0,animals,2,crow.jpg,75,(unused),523.368487229427,531.875207680658,8.46422351938755,1,0.885641308925187,1,1,1
44,2,animal,1,0,animals,2,orangutan.jpg,73,(unused),536.428948678922,545.052418989272,8.5634583020855,1,0.933748494886459,1,1,1
45,2,tool,0,0,animals,2,mixer.jpg,116,(unused),549.622913406777,558.830172462716,9.16084066961184,0,0.654427766093249,0,2,1
46,2,tool,0,0,animals,2,curlingiron.jpg,99,(unused),563.183784911724,573.191734887845,9.95015682430683,0,0.748275458959142,0,2,1
47,2,tool,0,0,animals,2,burnisher.jpg,95,(unused),577.562024421954,584.834406120875,7.22870776622044,0,0.754861042519224,0,2,1
48,2,animal,1,0,animals,2,caiman.jpg,64,(unused),589.188016324762,598.028360585316,8.78659835910981,1,1.6723765523011,1,1,1
49,2,tool,0,0,animals,2,paintgun.jpg,94,(unused),602.5820977348,610.721830263825,8.0838477559947,0,1.21422065040497,0,2,1
50,2,animal,1,0,animals,2,rooster.jpg,106,(unused),615.092150908906,622.864949077913,7.71991426107982,1,0.825455688673173,1,1,1
51,2,animal,1,0,animals,2,kangaroo.jpg,115,(unused),627.418739148124,637.109562148819,9.64905505704698,1,0.97424984981717,1,1,1
52,2,animal,0,0,animals,2,catfish.jpg,87,(unused),641.663543375111,650.103499037164,8.39696359116486,0,0.986599943839792,0,2,1
53,2,tool,0,0,animals,2,fishingpole.jpg,120,(unused),654.440418685218,664.164718054884,9.67847722520712,0,0.900843028303825,0,2,1
54,2,tool,0,0,animals,2,keys.jpg,72,(unused),668.501731998052,674.789997612634,6.2369223395703,0,0.93888052247803,0,2,1
55,2,tool,0,0,animals,2,eraser.jpg,117,(unused),679.143606854324,686.983154738121,7.79174253872524,0,1.04906468340141,0,2,1
56,2,animal,0,0,animals,2,prayingmantis.jpg,96,(unused),691.353415406378,699.159599177291,7.75262392533551,0,1.0928961953523,0,2,1
57,2,animal,1,0,animals,2,wasp.jpg,104,(unused),703.513219965323,710.702210144839,7.14514785143683,0,1.07767362841514,1,2,0
58,2,animal,1,0,animals,2,malaysianjunglenymph.jpg,85,(unused),715.272648113569,723.879480788814,8.56697301320211,1,1.31978274710491,1,1,1
59,2,tool,0,0,animals,2,hoe.jpg,91,(unused),728.433237502931,736.239394332382,7.76477126282225,0,0.81420859089485,0,2,1
60,2,animal,0,0,animals,2,cheetah.jpg,67,(unused),740.592995876514,747.248060181611,6.59990790158907,1,1.32487019299333,0,1,0
