trial,phase,object,toShock,seenBefore,shockedCategory,responseSide,filename,num,name,onsetFixationCross,onsetStimulus,interTrialTime,response,reactionTime,wasShocked,buttonPressed,isResponseCorrect
1,1,tool,0,0,animals,2,electricdrill.jpg,157,(unused),0.0185651213232632,5.93982677711392,5.85601807556338,tool,1.01595747438478,0,1,1
2,1,animal,0,0,animals,2,beetle.jpg,125,(unused),8.49199811454309,15.5475812352051,7.01478503290618,animal,0.623538737367198,0,2,1
3,1,animal,0,0,animals,2,lemur.jpg,127,(unused),18.0997551384862,23.8208795852643,5.67040744138655,animal,0.819390008955452,0,2,1
4,1,tool,0,0,animals,2,faxmachine.jpg,174,(unused),26.3730538092786,31.2268348027828,4.79794895760022,tool,0.499695576441809,0,1,1
5,1,tool,0,0,animals,2,wateringcan.jpg,123,(unused),33.7956691131185,38.6661550953795,4.81926667319595,tool,0.847614717420583,0,1,1
6,1,animal,0,0,animals,2,waterbuffalo.jpg,173,(unused),41.234985236204,47.556608228304,6.27471187305048,animal,0.461446720089953,0,2,1
7,1,animal,0,0,animals,2,dog.jpg,130,(unused),50.1087879047554,55.2960054002833,5.14150155357648,animal,0.622100897251585,0,2,1
8,1,animal,0,0,animals,2,otter.jpg,146,(unused),57.8483181803822,64.8536865872211,6.96274385923609,animal,0.475804915153276,0,2,1
9,1,tool,0,0,animals,2,telephone.jpg,138,(unused),67.4060234221961,74.5114553018357,7.05704171465009,tool,0.638309714100615,0,1,1
10,1,animal,0,0,animals,2,crab.jpg,143,(unused),77.0637311977916,83.9023284328923,6.7956053658146,animal,0.597632277476805,0,2,1
11,1,animal,0,0,animals,2,duck.jpg,149,(unused),86.4546678337192,92.4927168742342,5.98314553790066,animal,0.584552839618482,0,2,1
12,1,tool,0,0,animals,2,saw.jpg,163,(unused),95.0615710699349,99.4481483208856,4.35132902968528,tool,0.992322756976137,0,1,1
13,1,animal,0,0,animals,2,palmcockatoo.jpg,160,(unused),102.00044314001,109.322923768619,7.28138881651493,animal,0.843830083609646,0,2,1
14,1,animal,0,0,animals,2,lobsterspiny.jpg,155,(unused),111.875069126781,116.195082366585,4.25866423314068,animal,0.555858259247543,0,2,1
15,1,tool,0,0,animals,2,hairbrush.jpg,131,(unused),118.747266212549,126.570069657593,7.78600503250361,tool,0.682175865073077,0,1,1
16,1,animal,0,0,animals,2,fly.jpg,147,(unused),129.122233618193,135.544002511133,6.37669425913732,animal,0.814416743545735,0,2,1
17,1,animal,0,0,animals,2,gecko.jpg,122,(unused),138.096148190027,142.316072619229,4.16890440071115,animal,0.573599852788902,0,2,1
18,1,animal,0,0,animals,2,deer.jpg,142,(unused),144.868227920073,149.471848788287,4.55764958609287,animal,0.611965134739876,0,2,1
19,1,tool,0,0,animals,2,jumpercables.jpg,167,(unused),152.023983562305,157.177993782741,5.1005849874026,tool,0.665052962938717,0,1,1
20,1,animal,0,0,animals,2,brown_bear.jpg,129,(unused),159.746892880876,165.61807485088,5.81893484666032,animal,0.565187060854441,0,2,1
21,1,animal,0,0,animals,2,chimp.jpg,141,(unused),168.187018530718,173.407729714727,5.17461385664105,animal,0.508748548807489,0,2,1
22,1,tool,0,0,animals,2,glove.jpg,150,(unused),175.959894316791,183.715978837286,7.70875520760505,tool,0.608796626484036,0,1,1
23,1,animal,0,0,animals,2,earthworm.jpg,137,(unused),186.268178719834,192.256231785532,5.93733611101903,animal,0.559850085719518,0,2,1
24,1,tool,0,0,animals,2,ruler.jpg,166,(unused),194.808345070527,199.795603042392,4.94258620187354,tool,0.632694985333728,0,1,1
25,1,animal,0,0,animals,2,elephantafrican.jpg,153,(unused),202.347754173725,206.651074612577,4.24862177505072,animal,0.528418381200026,0,2,1
26,1,tool,0,0,animals,2,drill.jpg,124,(unused),209.219939713154,214.440710553255,5.17661026258786,tool,0.555917273874002,0,1,1
27,1,animal,0,0,animals,2,penguin.jpg,164,(unused),216.99284276142,222.180252375223,5.12773666255134,animal,0.477592032066241,0,2,1
28,1,animal,0,0,animals,2,bluejay.jpg,139,(unused),224.732416015091,228.785538803044,4.00012443280323,animal,0.544578446837477,0,2,1
29,1,animal,0,0,animals,2,octopus.jpg,170,(unused),231.337719441692,239.160573883071,7.78584001059501,animal,0.531826796752284,0,2,1
30,1,tool,0,0,animals,2,ladder.jpg,158,(unused),241.71269743148,246.866641901923,5.11498667391998,tool,0.477936818620947,0,1,1
31,1,tool,0,0,animals,2,wheeldolly.jpg,148,(unused),249.418908817392,256.324330818494,6.85438130809106,tool,0.556480157971237,0,1,1
32,1,tool,0,0,animals,2,corkscrew.jpg,151,(unused),258.876508570556,265.131406544206,6.20961723696349,tool,0.661660583973571,0,1,1
33,1,animal,0,0,animals,2,aardvark.jpg,175,(unused),267.683587824316,275.423003598733,7.69014766600893,animal,0.561350789246717,0,2,1
34,1,tool,0,0,animals,2,oven.jpg,128,(unused),277.975186803234,284.76388781107,6.74791411334518,tool,0.676736576533585,0,1,1
35,1,animal,0,0,animals,2,springhare.jpg,169,(unused),287.316024830208,295.255641959975,7.89668277398288,animal,0.609356303262757,0,2,1
36,1,tool,0,0,animals,2,pencil.jpg,161,(unused),297.807790204723,304.229492064742,6.38248243385471,tool,0.579664247370602,0,1,1
37,1,animal,0,0,animals,2,moth.jpg,159,(unused),306.781663722903,313.236742204341,6.40773906852151,animal,0.611743829880652,0,2,1
38,1,tool,0,0,animals,2,pruner.jpg,135,(unused),315.788877619822,322.077079088067,6.2510776124159,tool,0.748663221349489,0,1,1
39,1,animal,0,0,animals,2,giraffe.jpg,171,(unused),324.645999354492,331.551454390958,6.86176164850928,animal,1.11250091700822,0,2,1
40,1,tool,0,0,animals,2,measuringdevice.jpg,145,(unused),334.103624124728,339.557884098922,5.41010787988312,tool,0.77639592741798,0,1,1
41,1,tool,0,0,animals,2,crutches.jpg,121,(unused),342.110069227812,349.332375089729,7.17367868366238,tool,0.709134004137013,0,1,1
42,1,animal,0,0,animals,2,stickinsect.jpg,162,(unused),351.884538088134,359.307066794421,7.37302950365059,animal,1.12573141948815,0,2,1
43,1,tool,0,0,animals,2,carpetblower.jpg,168,(unused),361.859240697702,369.41518127382,7.50901304220993,tool,0.645863265868684,0,1,1
44,1,tool,0,0,animals,2,camera.jpg,133,(unused),371.967359988077,378.889463885256,6.86868842086713,tool,0.782875669523492,0,1,1
45,1,tool,0,0,animals,2,smartphone.jpg,176,(unused),381.458323854125,385.945126868106,4.42465327636912,tool,1.12634626211729,0,1,1
46,1,animal,0,0,animals,2,mink.jpg,134,(unused),388.497334127482,395.319372627471,6.77220473317053,animal,0.56530059987017,0,2,1
47,1,animal,0,0,animals,2,angelfish.jpg,132,(unused),397.888194750003,404.076360649105,6.12822207980036,animal,0.615647455142607,0,2,1
48,1,animal,0,0,animals,2,prairiedog.jpg,152,(unused),406.645220617975,413.133637233032,6.4372072725114,animal,0.509767834080776,0,2,1
49,1,tool,0,0,animals,2,lantern.jpg,140,(unused),415.685824927776,422.174128003817,6.44150138043786,tool,0.637319294677582,0,1,1
50,1,animal,0,0,animals,2,sparrow.jpg,172,(unused),424.709735474427,431.898725333213,7.1423475468771,animal,0.603108770892504,0,2,1
51,1,tool,0,0,animals,2,tape.jpg,126,(unused),434.450871332838,442.440545055708,7.94318670047709,tool,0.612516472496281,0,1,1
52,1,tool,0,0,animals,2,chainsaw.jpg,179,(unused),444.992709016309,450.797240377613,5.7627815875567,tool,0.573007782109926,0,1,1
53,1,tool,0,0,animals,2,magnet.jpg,180,(unused),453.349364567484,458.787005509012,5.39419089579915,tool,0.5275508020095,0,1,1
54,1,animal,0,0,animals,2,highlandcow.jpg,178,(unused),461.33917107327,466.059478616462,4.66869243570229,animal,0.602313997793317,0,2,1
55,1,tool,0,0,animals,2,typewriter.jpg,136,(unused),468.611670480719,476.517859992728,7.84585014406508,tool,0.557158826204613,0,1,1
56,1,tool,0,0,animals,2,binoculars.jpg,144,(unused),479.070040310644,486.926245394177,7.80775540768362,tool,0.604140564702902,0,1,1
57,1,tool,0,0,animals,2,caulkinggun.jpg,156,(unused),489.478415448679,495.833425967074,6.31905261893363,tool,0.610107136124498,0,1,1
58,1,animal,0,0,animals,2,shrimp.jpg,177,(unused),498.385569080116,502.922512077435,4.49263001533834,animal,0.846232684616552,0,2,1
59,1,tool,0,0,animals,2,dremel.jpg,165,(unused),505.474630173407,510.044798727526,4.52592021499686,tool,0.501155226311312,0,1,1
60,1,tool,0,0,animals,2,beadingtool.jpg,154,(unused),512.597003100316,520.620005334855,7.97102612001993,tool,0.599320929766691,0,1,1
