trial,phase,object,toShock,seenBefore,shockedCategory,responseSide,filename,num,name,onsetFixationCross,onsetStimulus,interTrialTime,response,reactionTime,wasShocked,buttonPressed,isResponseCorrect
1,3,animal,0,0,tools,1,moth.jpg,159,(unused),0.0184328350696887,5.62292100493141,5.53456333415989,animal,1.21041623067504,0,1,1
2,3,animal,0,0,tools,1,lobsterspiny.jpg,155,(unused),8.20835560534761,14.7802385204814,6.5340639632532,animal,0.802439364633756,0,1,1
3,3,animal,0,0,tools,1,lemur.jpg,127,(unused),17.332506901068,22.6033289218176,5.21644668524325,animal,0.811639641364309,0,1,1
4,3,tool,0,0,tools,1,magnet.jpg,180,(unused),25.1555350798626,32.9783695348597,7.77685463612357,tool,0.955931797376252,0,2,1
5,3,tool,0,0,tools,1,oven.jpg,128,(unused),35.5306321422213,43.0700037779134,7.50022787451172,tool,0.9477533816098,0,2,1
6,3,animal,0,0,tools,1,prairiedog.jpg,152,(unused),45.6221701648465,51.9772033432528,6.29773916585163,animal,0.717900095311052,0,1,1
7,3,tool,0,0,tools,1,wheeldolly.jpg,148,(unused),54.5460707101265,62.2522548933484,7.65243296341207,tool,0.78022399188194,0,2,1
8,3,animal,0,0,tools,1,otter.jpg,146,(unused),64.821111675974,68.890949746612,4.01489446445588,animal,0.591699625179899,0,1,1
9,3,tool,0,0,tools,1,chainsaw.jpg,179,(unused),71.4431626400874,77.2977908908542,5.80992377002974,tool,0.874398454274342,0,2,1
10,3,tool,0,0,tools,1,measuringdevice.jpg,145,(unused),79.8666784640191,85.3041933982313,5.40049825402881,tool,0.899173290446925,0,2,1
11,3,tool,0,0,tools,1,jumpercables.jpg,167,(unused),87.8565076438899,92.5769042260108,4.65927967535282,tool,0.867637686165835,0,2,1
12,3,animal,0,0,tools,1,aardvark.jpg,175,(unused),95.1457533110042,99.4157827961499,4.22926326411722,animal,0.876056332272128,0,1,1
13,3,tool,0,0,tools,1,hairbrush.jpg,131,(unused),101.967967144228,108.039298876669,6.03335917854498,tool,0.962917079821636,0,2,1
14,3,animal,0,0,tools,1,bluejay.jpg,139,(unused),110.591660911807,115.81242457487,5.17887399373277,animal,0.89107634130778,0,1,1
15,3,animal,0,0,tools,1,gecko.jpg,122,(unused),118.364631374381,123.502056919813,5.09680555303767,animal,0.73766826181236,0,1,1
16,3,tool,0,0,tools,1,saw.jpg,163,(unused),126.054222986011,133.426661477904,7.33751041854054,tool,0.898500388913817,0,2,1
17,3,tool,0,0,tools,1,telephone.jpg,138,(unused),135.995670609544,141.917005597443,5.85974411246417,tool,0.903405706405465,0,2,1
18,3,animal,0,0,tools,1,dog.jpg,130,(unused),144.469229075163,149.539848776421,5.01808225797779,animal,0.831007851611503,0,1,1
19,3,animal,0,0,tools,1,shrimp.jpg,177,(unused),152.092031520828,159.197715550257,7.04979791891183,animal,1.2114291110629,0,1,1
20,3,tool,0,0,tools,1,drill.jpg,124,(unused),161.749928443733,168.588672626003,6.78516974120901,tool,0.900816093915637,0,2,1
21,3,animal,0,0,tools,1,elephantafrican.jpg,153,(unused),171.157525559811,177.312320496436,6.1146916957602,animal,0.890429740025866,0,1,1
22,3,tool,0,0,tools,1,carpetblower.jpg,168,(unused),179.864652382508,184.818567928553,4.91245736453938,tool,1.12761117422997,0,2,1
23,3,tool,0,0,tools,1,glove.jpg,150,(unused),187.370766068227,194.776665855934,7.35680853412567,tool,0.939728918525361,0,2,1
24,3,animal,0,0,tools,1,fly.jpg,147,(unused),197.328843789317,204.584592879793,7.20981976088064,animal,0.946266134506004,0,1,1
25,3,animal,0,0,tools,1,highlandcow.jpg,178,(unused),207.136814753841,212.69119677653,5.50515102932169,animal,0.934824563235452,0,1,1
26,3,animal,0,0,tools,1,angelfish.jpg,132,(unused),215.260083708225,220.997898433219,5.69523953989171,animal,1.10859513075775,0,1,1
27,3,tool,0,0,tools,1,corkscrew.jpg,151,(unused),223.566843097171,229.638311141887,6.0187841006373,tool,0.965490655573376,0,2,1
28,3,tool,0,0,tools,1,pruner.jpg,135,(unused),232.207199677254,237.928400341432,5.67496110420413,tool,0.92464829061646,0,2,1
29,3,animal,0,0,tools,1,penguin.jpg,164,(unused),240.480590142004,246.902226780945,6.37964894161611,animal,0.884215503956511,0,1,1
30,3,tool,0,0,tools,1,lantern.jpg,140,(unused),249.471235912584,253.724565059259,4.20858877505235,tool,0.928079831868672,0,2,1
31,3,animal,0,0,tools,1,springhare.jpg,169,(unused),256.293432746868,263.232286267623,6.89388521801942,animal,1.31979063430845,0,1,1
32,3,tool,0,0,tools,1,binoculars.jpg,144,(unused),265.784496274482,271.038629503215,5.20312834350586,tool,1.04259240643296,0,2,1
33,3,animal,0,0,tools,1,waterbuffalo.jpg,173,(unused),273.590839189339,281.213612768879,7.57858407401625,animal,0.924061666730267,0,1,1
34,3,tool,0,0,tools,1,caulkinggun.jpg,156,(unused),283.765761836134,290.904838203402,7.09042734626828,tool,0.960279357113905,0,2,1
35,3,tool,0,0,tools,1,crutches.jpg,121,(unused),293.457012287967,300.512496836411,7.01149892334651,tool,1.032909103149,0,2,1
36,3,tool,0,0,tools,1,dremel.jpg,165,(unused),303.081466196938,309.786799791564,6.6543949712945,tool,1.04106314307501,0,2,1
37,3,animal,0,0,tools,1,chimp.jpg,141,(unused),312.339004345933,317.693250761964,5.30525905355919,animal,0.899864473867638,0,1,1
38,3,animal,0,0,tools,1,beetle.jpg,125,(unused),320.262109468997,324.865769501695,4.55474330607307,animal,1.22555234569882,0,1,1
39,3,animal,0,0,tools,1,earthworm.jpg,137,(unused),327.417946793608,334.373508671204,6.91161490675575,animal,0.934168981377297,0,1,1
40,3,tool,0,0,tools,1,tape.jpg,126,(unused),336.942350058562,342.129607202205,5.13598411355303,tool,0.986365036274947,0,2,1
41,3,animal,0,0,tools,1,crab.jpg,143,(unused),344.68194742738,348.835246136328,4.10524856062138,animal,0.823036630496063,0,1,1
42,3,animal,0,0,tools,1,giraffe.jpg,171,(unused),351.387411561056,358.409502488721,6.97687615372509,animal,1.13009013322517,0,1,1
43,3,animal,0,0,tools,1,brown_bear.jpg,129,(unused),360.961878636186,367.350272399693,6.33449547546997,animal,0.856642577691673,0,1,1
44,3,tool,0,0,tools,1,wateringcan.jpg,123,(unused),369.902492990801,377.024803910441,7.07507748980644,tool,1.50451172816975,0,2,1
45,3,tool,0,0,tools,1,beadingtool.jpg,154,(unused),379.577021935671,386.615937326158,6.98768574285907,tool,1.15472994006996,0,2,1
46,3,animal,0,0,tools,1,mink.jpg,134,(unused),389.168136107302,396.49062015957,7.27005625293087,animal,0.814408544589242,0,1,1
47,3,tool,0,0,tools,1,smartphone.jpg,176,(unused),399.059518958449,404.714023790479,5.60372555110358,tool,1.07939062674268,0,2,1
48,3,tool,0,0,tools,1,faxmachine.jpg,174,(unused),407.282866781512,414.171716469482,6.84074451094,tool,0.906205400169711,0,2,1
49,3,tool,0,0,tools,1,camera.jpg,133,(unused),416.723844688979,421.777687075424,5.00965410734808,tool,0.731281470438262,0,2,1
50,3,animal,0,0,tools,1,deer.jpg,142,(unused),424.346739185523,428.850103532841,4.45845042665985,animal,1.0521089276408,0,1,1
51,3,animal,0,0,tools,1,palmcockatoo.jpg,160,(unused),431.385768436856,435.906011771905,4.47303103874957,animal,0.884439697558264,0,1,1
52,3,tool,0,0,tools,1,ladder.jpg,158,(unused),438.474895175517,444.312844897777,5.79558357764524,tool,1.07306573717869,0,2,1
53,3,animal,0,0,tools,1,duck.jpg,149,(unused),446.864998455319,453.703826349367,6.7792270856493,animal,0.917310520664614,0,1,1
54,3,tool,0,0,tools,1,pencil.jpg,161,(unused),456.256036035491,462.244087061827,5.94670361962807,tool,0.681351406652539,0,2,1
55,3,animal,0,0,tools,1,stickinsect.jpg,162,(unused),464.796279107541,471.735136156374,6.89130523974321,animal,1.07880753093923,0,1,1
56,3,tool,0,0,tools,1,ruler.jpg,166,(unused),474.303997429288,481.42636576045,7.06871424319101,tool,1.07894833350292,0,2,1
57,3,animal,0,0,tools,1,octopus.jpg,170,(unused),483.995237296876,489.099155681426,5.04811830112466,animal,2.18849144361957,0,1,1
58,3,tool,0,0,tools,1,electricdrill.jpg,157,(unused),491.651467681942,499.390965302249,7.69498505208876,tool,0.970029693966353,0,2,1
59,3,animal,0,0,tools,1,sparrow.jpg,172,(unused),501.926475932843,508.098077371145,6.12884143061119,animal,0.996241101154737,0,1,1
60,3,tool,0,0,tools,1,typewriter.jpg,136,(unused),510.650242154403,515.203827471938,4.49117508483623,tool,1.01275220611569,0,2,1
