trial,phase,object,toShock,seenBefore,shockedCategory,responseSide,filename,num,name,onsetFixationCross,onsetStimulus,interTrialTime,response,reactionTime,wasShocked,buttonPressed,isResponseCorrect
1,2,tool,1,0,tools,1,viceclamp.jpg,4,(unused),0.0319139563143835,6.98720866184885,6.83747249090837,0,1.15639487662338,1,2,0
2,2,animal,0,0,tools,1,armadillo.jpg,57,(unused),11.5911653742005,17.9129091706309,6.27178009052796,0,2.86905597768782,0,2,1
3,2,tool,0,0,tools,1,electricbreaker.jpg,41,(unused),22.2832872623912,29.8560114648135,7.52061372822291,1,1.31438625591545,0,1,0
4,2,tool,0,0,tools,1,compass.jpg,32,(unused),34.2096334102571,42.1826560884474,7.92897557461147,1,2.13816463332842,0,1,0
5,2,tool,1,0,tools,1,abacus.jpg,12,(unused),46.5363473126017,55.8437889043962,9.26333651985502,0,2.82551430894819,1,2,0
6,2,animal,0,0,tools,1,salamander.jpg,9,(unused),60.397612848592,66.8527595350315,6.4024058151331,0,1.48007687323843,0,2,1
7,2,animal,0,0,tools,1,racoon.jpg,23,(unused),71.2064321565667,80.5138599567654,9.2559984754365,0,1.37445667002976,0,2,1
8,2,animal,0,0,tools,1,caterpillarpeacockmoth.jpg,1,(unused),84.8674995426227,93.8746945856001,8.95626763264908,0,1.07714227843462,0,2,1
9,2,tool,1,0,tools,1,monkeywrench.jpg,16,(unused),98.2283726596288,105.634266032637,7.36054136921588,0,1.97103006809266,1,2,0
10,2,animal,0,0,tools,1,seahorse.jpg,42,(unused),110.188108579452,119.045167999735,8.81097991865084,0,1.0105898147267,0,2,1
11,2,animal,0,0,tools,1,phasmagigas.jpg,36,(unused),123.398802133099,129.903985046534,6.45474694187224,0,0.927176324425091,0,2,1
12,2,tool,1,0,tools,1,hourglass.jpg,10,(unused),134.257675629215,143.231345229429,8.92178542267913,1,3.12840595736998,1,1,1
13,2,tool,1,0,tools,1,anvil.jpg,6,(unused),147.785342049665,156.85925633843,9.0225598635663,1,1.69196676755746,1,1,1
14,2,animal,0,0,tools,1,flounder.jpg,29,(unused),161.413088942467,170.687170911366,9.2240221738076,0,1.03245879393216,0,2,1
15,2,tool,0,0,tools,1,pressuregauge.jpg,38,(unused),175.040786442114,183.480900610859,8.38695840407954,1,1.8513620029189,0,1,0
16,2,animal,0,0,tools,1,firebug.jpg,15,(unused),187.834438203059,195.457278495429,7.58406449088788,0,1.10829909496169,0,2,1
17,2,animal,0,0,tools,1,leopard.jpg,50,(unused),199.810970681785,208.651383326305,8.79411807967953,0,1.05368758654731,0,2,1
18,2,animal,0,0,tools,1,squirel.jpg,46,(unused),213.005029968324,219.610274430757,6.56209981712305,0,0.851242368848034,0,2,1
19,2,tool,1,0,tools,1,television.jpg,54,(unused),223.963929732614,233.521420958114,9.51972827693243,1,1.12459594909888,1,1,1
20,2,animal,0,0,tools,1,cat.jpg,8,(unused),238.075405911164,247.749828051354,9.63210757477787,0,0.957794948022638,0,2,1
21,2,tool,1,0,tools,1,flashlight.jpg,51,(unused),252.103487522767,258.425053311399,6.28620901382645,1,2.4819592655731,1,1,1
22,2,animal,0,0,tools,1,heckcattle.jpg,37,(unused),262.979004266563,270.851947113872,7.82969495034795,0,0.875532895530341,0,2,1
23,2,animal,0,0,tools,1,mahimahi.jpg,39,(unused),275.205565851968,281.760622059133,6.51683796853501,0,0.891282255422993,0,2,1
24,2,tool,0,0,tools,1,italiangardeningtool.jpg,2,(unused),286.114471405523,292.769750491276,6.60229260987364,0,2.60066576792451,0,2,1
25,2,tool,1,0,tools,1,loom.jpg,14,(unused),297.14009105707,305.329965075663,8.13528679836015,1,1.87278708520535,1,1,1
26,2,tool,1,0,tools,1,woodchipper.jpg,13,(unused),309.883782925899,317.656684430498,7.72838989660921,0,3.05965517758159,1,2,0
27,2,animal,0,0,tools,1,yak.jpg,53,(unused),322.210458660807,331.617988101851,9.35514057465904,0,0.798656621213013,0,2,1
28,2,animal,0,0,tools,1,mountainsheep.jpg,7,(unused),335.988357213042,342.109878804426,6.07372318751961,0,0.728289658942231,0,2,1
29,2,tool,1,0,tools,1,workbench.jpg,11,(unused),346.463530578199,354.936974541506,8.42304563905913,1,1.06171172889663,1,1,1
30,2,animal,0,0,tools,1,partridge.jpg,33,(unused),359.490745885203,368.564756073662,9.03049008738717,0,0.711343958380894,0,2,1
31,2,tool,1,0,tools,1,spraybottle.jpg,49,(unused),372.935053981735,382.926375540468,9.93198413553836,0,3.21335993674074,1,2,0
32,2,tool,1,0,tools,1,clamp.jpg,31,(unused),387.480206220094,394.919478460084,7.39534908112321,0,2.08666970462218,1,2,0
33,2,animal,0,0,tools,1,cockatiel.jpg,20,(unused),399.473256539211,409.264476168435,9.75075251463501,0,0.694120822237892,0,2,1
34,2,animal,0,0,tools,1,porcupine.jpg,60,(unused),413.618118961636,423.275690980223,9.59497645213422,0,0.670549703634606,0,2,1
35,2,animal,0,0,tools,1,quail.jpg,47,(unused),427.629466878352,435.218909059655,7.5467083316181,0,0.652792544115073,0,2,1
36,2,tool,1,0,tools,1,scale.jpg,43,(unused),439.572566606657,447.211806388288,7.58613489461818,1,1.09028470615885,1,1,1
37,2,animal,0,0,tools,1,panda.jpg,18,(unused),451.765808340278,459.338482508076,7.5107946224681,0,0.671127988418448,0,2,1
38,2,tool,1,0,tools,1,nailgun.jpg,25,(unused),463.692174373697,470.280720742805,6.54875055155112,1,0.91038650095652,1,1,1
39,2,tool,1,0,tools,1,washboard.jpg,59,(unused),474.851231554614,481.773424187271,6.87514969594434,1,1.01703562129478,1,1,1
40,2,tool,1,0,tools,1,floorbuffer.jpg,56,(unused),486.343900359727,494.767321887633,8.36712659740302,1,2.77669655333375,1,1,1
41,2,animal,0,0,tools,1,chinchilla.jpg,19,(unused),499.321112796151,505.542762970101,6.17582426193136,0,1.4586145857138,0,2,1
42,2,tool,0,0,tools,1,shovel.jpg,52,(unused),509.913058312297,519.95449275363,9.99053234976131,0,2.00038948699876,0,2,1
43,2,tool,0,0,tools,1,sawblade.jpg,34,(unused),524.308116944216,533.415397912038,9.05475306384058,1,1.78899480715336,0,1,0
44,2,tool,1,0,tools,1,blower.jpg,27,(unused),537.785733666813,547.226628824712,9.38906865654567,1,2.25334433620083,1,1,1
45,2,animal,0,0,tools,1,beta.jpg,17,(unused),551.78044956156,558.051985858634,6.22898595400673,0,0.848282949173154,0,2,1
46,2,animal,0,0,tools,1,hippo.jpg,45,(unused),562.422402117834,571.74655751896,9.27520655493759,0,0.539312414752203,0,2,1
47,2,tool,0,0,tools,1,plunger.jpg,30,(unused),576.100218273306,585.140801163838,8.99170479332585,0,1.59158640820169,0,2,1
48,2,animal,0,0,tools,1,frog.jpg,5,(unused),589.494414770179,597.934558125788,8.401637154082,0,0.617198041381926,0,2,1
49,2,animal,0,0,tools,1,rat.jpg,48,(unused),602.271496731701,608.359503785301,6.04500162231909,0,0.541735886639799,0,2,1
50,2,tool,1,0,tools,1,kettle.jpg,58,(unused),612.713037207948,619.201792407461,6.44330483265734,0,2.2888002815198,1,2,0
51,2,tool,0,0,tools,1,vegetablepeeler.jpg,3,(unused),623.755653556891,632.779321858128,8.97678405668803,0,1.90489006929056,0,2,1
52,2,tool,1,0,tools,1,bucket.jpg,22,(unused),637.133164148352,646.774203893485,9.58852865380302,1,1.71556771449468,1,1,1
53,2,animal,0,0,tools,1,herculesbeetle.jpg,28,(unused),651.344736835992,658.9841507766,7.5942721965356,0,0.634915109054418,0,2,1
54,2,animal,0,0,tools,1,tragopan.jpg,55,(unused),663.337812813887,670.977259790176,7.58739196779312,0,0.598337875002471,0,2,1
55,2,animal,0,0,tools,1,emu.jpg,26,(unused),675.34758335703,682.653373806254,7.25332604641273,0,0.628616199010139,0,2,1
56,2,tool,1,0,tools,1,blender.jpg,24,(unused),687.023745483322,695.196940011203,8.12649991511158,0,2.53258885187824,1,2,0
57,2,tool,0,0,tools,1,spoon.jpg,44,(unused),699.750702695059,706.973063937985,7.18632247554143,1,2.19192972269229,0,1,0
58,2,animal,0,0,tools,1,rhino.jpg,35,(unused),711.326826044518,718.315707132424,6.9431727253849,0,0.601700458275445,0,2,1
59,2,animal,0,0,tools,1,ferret.jpg,21,(unused),722.669381999101,732.593979180292,9.88136479944605,0,0.93888795436942,0,2,1
60,2,tool,0,0,tools,1,edger.jpg,40,(unused),736.947677781343,745.254266860135,8.25718224693217,0,3.54523798953596,0,2,1
