trial,phase,object,toShock,seenBefore,shockedCategory,responseSide,filename,num,name,onsetFixationCross,onsetStimulus,interTrialTime,response,reactionTime,wasShocked,buttonPressed,isResponseCorrect
1,1,animal,0,0,animals,2,cow.jpg,80,(unused),0.028004051840071,6.24898940636012,6.05953309367789,animal,1.14059056324641,0,2,1
2,1,animal,0,0,animals,2,goldfish.jpg,98,(unused),8.83448787291763,15.2225857181447,6.33486338740425,animal,0.709374156408558,0,2,1
3,1,tool,0,0,animals,2,eraser.jpg,117,(unused),17.774610496981,23.6288709390456,5.79245729207115,tool,0.818456393944871,0,1,1
4,1,animal,0,0,animals,2,crow.jpg,75,(unused),26.1975660088729,32.8357490096987,6.59676746277018,animal,0.602977768160599,0,2,1
5,1,animal,0,0,animals,2,pelican.jpg,92,(unused),35.387793674211,42.9266005721038,7.496485161744,animal,0.649552909397244,0,2,1
6,1,tool,0,0,animals,2,clippers.jpg,61,(unused),45.4953322059173,53.0008527263317,7.44723962763986,tool,0.700745055709376,0,1,1
7,1,animal,0,0,animals,2,macaw.jpg,81,(unused),55.5695647952052,62.9416472938219,7.31801832131858,animal,0.766343412510651,0,2,1
8,1,tool,0,0,animals,2,stove.jpg,101,(unused),65.5103115729244,71.8315685272983,6.27563419789959,tool,0.751866960679763,0,1,1
9,1,tool,0,0,animals,2,hoe.jpg,91,(unused),74.4003152357373,79.3705829418477,4.92305838454355,tool,0.74118771087069,0,1,1
10,1,animal,0,0,animals,2,manatee.jpg,65,(unused),81.9226061170002,89.1446341865949,7.17794310725749,animal,0.763479233606631,0,2,1
11,1,tool,0,0,animals,2,fishingpole.jpg,120,(unused),91.6966147037638,99.619099694889,7.87129536283604,tool,0.633554241096135,0,1,1
12,1,animal,0,0,animals,2,shark.jpg,110,(unused),102.18773286253,108.292258714229,6.04815002190889,animal,0.642856247432974,0,2,1
13,1,animal,0,0,animals,2,turtle.jpg,78,(unused),110.844253023078,116.94874840479,6.05117157508101,animal,0.607655713213717,0,2,1
14,1,tool,0,0,animals,2,reflexhammer.jpg,93,(unused),119.500742713637,125.72196541333,6.17371270896063,tool,0.673821132534613,0,1,1
15,1,animal,0,0,animals,2,seal.jpg,107,(unused),128.273939195027,133.24424474807,4.91907858952102,animal,0.656889120380583,0,2,1
16,1,tool,0,0,animals,2,stopwatch.jpg,111,(unused),135.796244830179,140.449638769923,4.60061795403471,tool,0.795813664501111,0,1,1
17,1,tool,0,0,animals,2,wrench.jpg,118,(unused),143.001678944121,148.805738316337,5.76337301125799,tool,0.630069757376077,0,1,1
18,1,tool,0,0,animals,2,curlingiron.jpg,99,(unused),151.357898446068,156.961950569634,5.5587038136549,tool,0.591178184990895,0,1,1
19,1,animal,0,0,animals,2,gerbil.jpg,90,(unused),159.514032760343,165.401652387121,5.83695414494544,animal,0.697888574486569,0,2,1
20,1,animal,0,0,animals,2,rooster.jpg,106,(unused),167.970372795149,175.692706526837,7.6753058191205,animal,0.585270856092393,0,2,1
21,1,animal,0,0,animals,2,dolphin.jpg,86,(unused),178.261381069515,183.515181960009,5.2033522901705,animal,0.76216100568945,0,2,1
22,1,tool,0,0,animals,2,padlock.jpg,84,(unused),186.083917442663,190.537137992136,4.40767455754555,tool,0.71249877352875,0,1,1
23,1,animal,0,0,animals,2,dragonfly.jpg,68,(unused),193.089173355283,201.044873841071,7.89684620435509,animal,0.88123675793031,0,2,1
24,1,tool,0,0,animals,2,keys.jpg,72,(unused),203.597040706274,208.934273556642,5.28060718712083,tool,0.620136861912215,0,1,1
25,1,animal,0,0,animals,2,ram.jpg,97,(unused),211.486269148437,219.258661863608,7.72830118842325,animal,0.823226390436503,0,2,1
26,1,tool,0,0,animals,2,lighterbic.jpg,69,(unused),221.810657134665,227.197956024724,5.33742996019282,tool,0.613286567059731,0,1,1
27,1,animal,0,0,animals,2,malaysianjunglenymph.jpg,85,(unused),229.766616454986,234.036398052524,4.2206827586548,animal,0.861151262350177,0,2,1
28,1,animal,0,0,animals,2,orangutan.jpg,73,(unused),236.588424114307,241.458613624805,4.82845122352933,animal,0.779266536409523,0,2,1
29,1,tool,0,0,animals,2,avocadoslicer.jpg,76,(unused),244.027289129693,252.049858089691,7.96615526159364,tool,0.778614799396564,0,1,1
30,1,tool,0,0,animals,2,generator.jpg,66,(unused),254.618535198262,262.441003254489,7.76703233280418,tool,0.808755391129125,0,1,1
31,1,animal,0,0,animals,2,kangaroo.jpg,115,(unused),264.992980243554,270.163364569535,5.12183659228561,animal,0.694768126943927,0,2,1
32,1,tool,0,0,animals,2,paintgun.jpg,94,(unused),272.732113843868,279.020062931404,6.24374191590182,tool,0.672461208845561,0,1,1
33,1,tool,0,0,animals,2,magnifyingglass.jpg,74,(unused),281.572105992233,287.659854106141,6.02613283537351,tool,0.654116672178134,0,1,1
34,1,tool,0,0,animals,2,airhorn.jpg,89,(unused),290.211863810351,294.798515646152,4.53350482115233,tool,0.771697791305087,0,1,1
35,1,animal,0,0,animals,2,stinkbug.jpg,62,(unused),297.333873662101,304.72259790614,7.3433133909292,animal,0.927068431451517,0,2,1
36,1,tool,0,0,animals,2,mixer.jpg,116,(unused),307.274638401075,313.79607259456,6.46817686123648,tool,0.756906055278705,0,1,1
37,1,tool,0,0,animals,2,thermometer.jpg,79,(unused),316.348087109821,322.552629254947,6.15284164820129,tool,0.946817794949311,0,1,1
38,1,animal,0,0,animals,2,catfish.jpg,87,(unused),325.104646015365,329.240963290694,4.08363326115904,animal,0.682759744167925,0,2,1
39,1,tool,0,0,animals,2,tubeflaring.jpg,109,(unused),331.809684019458,336.846503311901,4.99711105873794,tool,0.667557144404782,0,1,1
40,1,animal,0,0,animals,2,caiman.jpg,64,(unused),339.415349448724,344.285569108473,4.82175054565145,animal,0.578781710784824,0,2,1
41,1,tool,0,0,animals,2,burnisher.jpg,95,(unused),346.854271875982,353.342362280117,6.43623706825372,tool,0.697571365871227,0,1,1
42,1,tool,0,0,animals,2,electricsander.jpg,103,(unused),355.894356588964,360.580924648334,4.62603093311044,tool,0.691170102424621,0,1,1
43,1,tool,0,0,animals,2,mallet.jpg,82,(unused),363.133120059105,367.803013337169,4.62901759841439,tool,0.572406747749483,0,1,1
44,1,animal,0,0,animals,2,flea.jpg,77,(unused),370.355227992142,374.541537216979,4.13483457050996,animal,0.604175078334265,0,2,1
45,1,animal,0,0,animals,2,seaslug.jpg,119,(unused),377.093583485175,383.748428437838,6.59930755529326,animal,0.723633790217718,0,2,1
46,1,tool,0,0,animals,2,level.jpg,100,(unused),386.300465404669,393.105383389083,6.74411297138631,tool,0.711137566891921,0,1,1
47,1,tool,0,0,animals,2,ducttape.jpg,83,(unused),395.657469749369,403.06290052765,7.34941165229128,tool,0.69606518623641,0,1,1
48,1,animal,0,0,animals,2,ant.jpg,112,(unused),405.614932362693,410.985510606095,5.30690749047746,animal,0.652806141942165,0,2,1
49,1,animal,0,0,animals,2,hedgehog.jpg,108,(unused),413.520833020268,421.409979995304,7.8310926367169,animal,0.636797210066106,0,2,1
50,1,tool,0,0,animals,2,shoehorn.jpg,102,(unused),423.961964682049,431.150605983574,7.14372516384646,tool,0.62857929384063,0,1,1
51,1,tool,0,0,animals,2,hammer.jpg,63,(unused),433.702636214934,441.608412426661,7.84835970869948,tool,0.622239611845544,0,1,1
52,1,animal,0,0,animals,2,wasp.jpg,104,(unused),444.160482108638,450.715244375374,6.50253401574584,animal,0.715807814263826,0,2,1
53,1,animal,0,0,animals,2,prayingmantis.jpg,96,(unused),453.283945218463,460.339116745253,7.01117111970098,animal,0.55135038212029,0,2,1
54,1,animal,0,0,animals,2,baboon.jpg,113,(unused),462.891120034728,467.377536193188,4.43682737777232,animal,0.581254911628093,0,2,1
55,1,tool,0,0,animals,2,gardenhose.jpg,114,(unused),469.946415686629,476.267726524772,6.26396813391098,tool,0.723452573970462,0,1,1
56,1,animal,0,0,animals,2,cheetah.jpg,67,(unused),478.819718267726,484.273688378912,5.40257187276768,animal,0.645907095107759,0,2,1
57,1,tool,0,0,animals,2,pliers2.jpg,70,(unused),486.825699045333,493.947622618904,7.07216095906984,tool,0.619267665402731,0,1,1
58,1,animal,0,0,animals,2,baldeagle.jpg,71,(unused),496.499612437437,503.855028493903,7.30534490639211,animal,0.706348967671147,0,2,1
59,1,tool,0,0,animals,2,carjack.jpg,88,(unused),506.407028896748,512.678286203933,6.22826799844844,tool,0.753481870062387,0,1,1
60,1,animal,0,0,animals,2,starfish.jpg,105,(unused),515.230307775401,520.317330062113,5.03333994096683,animal,0.736772769928393,0,2,1
