trial,phase,object,toShock,seenBefore,shockedCategory,responseSide,filename,num,name,onsetFixationCross,onsetStimulus,interTrialTime,response,reactionTime,wasShocked,buttonPressed,isResponseCorrect
1,2,animal,1,0,animals,1,cockatiel.jpg,20,(unused),0.014735583035872,10.1060485334428,9.96768961882691,0,1.14874071216673,1,2,0
2,2,animal,0,0,animals,1,mahimahi.jpg,39,(unused),14.6933746287177,21.7823337293348,7.04330012263487,1,2.06584344027851,0,1,0
3,2,tool,0,0,animals,1,kettle.jpg,58,(unused),26.1525543061325,34.3922383725994,8.18772387670513,0,1.57618944240585,0,2,1
4,2,tool,0,0,animals,1,pressuregauge.jpg,38,(unused),38.7460342801278,46.0684738550808,7.27971516573933,0,0.730354255510974,0,2,1
5,2,tool,0,0,animals,1,viceclamp.jpg,4,(unused),50.4387521635808,57.6277789065089,7.14018870865591,0,0.78539854695191,0,2,1
6,2,animal,1,0,animals,1,beta.jpg,17,(unused),61.9813656969818,72.0226589384283,9.99134778747944,1,1.24689134123309,1,1,1
7,2,tool,0,0,animals,1,scale.jpg,43,(unused),76.5764307269337,85.4500999711072,8.81932280505245,0,0.571799908650064,0,2,1
8,2,tool,0,0,animals,1,edger.jpg,40,(unused),89.8037162688952,99.2777082974299,9.43075041062402,0,0.644560455831197,0,2,1
9,2,animal,1,0,animals,1,chinchilla.jpg,19,(unused),103.631470528131,111.821278252697,8.13630813332706,1,1.00537365175933,1,1,1
10,2,animal,1,0,animals,1,porcupine.jpg,60,(unused),116.375043305838,125.89927602746,9.4637611639903,1,0.999798693718731,1,1,1
11,2,animal,0,0,animals,1,yak.jpg,53,(unused),130.469759540088,136.87474486501,6.361821773294,1,0.962617232395132,0,1,0
12,2,tool,0,0,animals,1,workbench.jpg,11,(unused),141.245026701558,148.817662965214,7.5188312247413,0,0.592025889775869,0,2,1
13,2,animal,1,0,animals,1,partridge.jpg,33,(unused),153.171271886174,159.659758741466,6.44020753840161,1,1.09024502713055,1,1,1
14,2,tool,0,0,animals,1,monkeywrench.jpg,16,(unused),164.213495570219,170.585080539578,6.32668070026071,0,0.680151408760139,0,2,1
15,2,tool,0,0,animals,1,bucket.jpg,22,(unused),174.938774454432,182.661511219359,7.66791928847022,0,0.755063744773906,0,2,1
16,2,tool,0,0,animals,1,clamp.jpg,31,(unused),187.015140667146,195.421813040698,8.35464705085853,0,0.594142398124859,0,2,1
17,2,animal,1,0,animals,1,racoon.jpg,23,(unused),199.775401755562,206.263832803543,6.44981843754969,1,2.21751584750746,1,1,1
18,2,animal,0,0,animals,1,hippo.jpg,45,(unused),210.834262112517,217.556296154336,6.67483724243856,0,1.32634331342888,0,2,1
19,2,tool,0,0,animals,1,vegetablepeeler.jpg,3,(unused),221.909827137497,231.017028493808,9.04738137835813,0,0.640950941517985,0,2,1
20,2,tool,0,0,animals,1,plunger.jpg,30,(unused),235.370666922081,245.161738778485,9.74054378492238,0,0.555716818618748,0,2,1
21,2,animal,1,0,animals,1,ferret.jpg,21,(unused),249.515369829931,255.63666124962,6.08148126486697,1,1.39504884999496,1,1,1
22,2,animal,1,0,animals,1,panda.jpg,18,(unused),260.190610402745,268.964194043633,8.72306237679573,0,1.03589415757779,1,2,0
23,2,animal,1,0,animals,1,firebug.jpg,15,(unused),273.517976737015,279.856261739827,6.28384820128986,1,1.60714742623531,1,1,1
24,2,tool,0,0,animals,1,italiangardeningtool.jpg,2,(unused),284.410076185645,292.783317734125,8.32271105425881,0,0.612430839179069,0,2,1
25,2,tool,0,0,animals,1,loom.jpg,14,(unused),297.136938522157,305.326765490623,8.14816682570285,0,0.749494559904633,0,2,1
26,2,tool,0,0,animals,1,spoon.jpg,44,(unused),309.697041233269,316.869329952078,7.12580973871533,0,0.568089363858235,0,2,1
27,2,animal,1,0,animals,1,flounder.jpg,29,(unused),321.222970625473,329.579493073003,8.31025467806521,1,0.94423738281148,1,1,1
28,2,tool,0,0,animals,1,woodchipper.jpg,13,(unused),334.150019242943,342.58999094158,8.38907619094052,0,0.521152848525162,0,2,1
29,2,animal,0,0,animals,1,armadillo.jpg,57,(unused),346.943606597904,353.799006644924,6.80431448899926,1,1.21648084638036,0,1,0
30,2,animal,0,0,animals,1,mountainsheep.jpg,7,(unused),358.169324724152,365.95878105509,7.73512419276284,0,1.44502526018005,0,2,1
31,2,animal,1,0,animals,1,emu.jpg,26,(unused),370.312408257755,379.953360048255,9.60351549457946,1,1.25087675307441,1,1,1
32,2,tool,0,0,animals,1,nailgun.jpg,25,(unused),384.523828807226,393.597499911643,9.02593319895825,0,0.687084344728646,0,2,1
33,2,tool,0,0,animals,1,hourglass.jpg,10,(unused),397.951288763074,406.441309998719,8.43729120426447,0,0.841566361464174,0,2,1
34,2,tool,0,0,animals,1,washboard.jpg,59,(unused),410.794916674557,419.001402125687,8.15272041341821,0,0.614832798721181,0,2,1
35,2,animal,1,0,animals,1,herculesbeetle.jpg,28,(unused),423.355070061274,429.509865432859,6.11303330429222,1,0.948657706808262,1,1,1
36,2,tool,0,0,animals,1,compass.jpg,32,(unused),434.080323286953,442.32013340097,8.20227115323575,0,0.715845316558443,0,2,1
37,2,animal,1,0,animals,1,rhino.jpg,35,(unused),446.673743925588,455.49737646202,8.76356060635954,0,1.40196703230595,1,2,0
38,2,tool,0,0,animals,1,floorbuffer.jpg,56,(unused),460.051167815158,469.658768001311,9.56540956141207,0,0.573819876763082,0,2,1
39,2,tool,0,0,animals,1,blower.jpg,27,(unused),474.012393921049,482.252226807015,8.18408946091789,0,0.540764307755126,0,2,1
40,2,tool,0,0,animals,1,electricbreaker.jpg,41,(unused),486.605823219439,495.813114027815,9.15459837823346,0,0.549260489924563,0,2,1
41,2,animal,1,0,animals,1,caterpillarpeacockmoth.jpg,1,(unused),500.183389449729,508.123016522177,7.89500719145719,1,0.982794141573322,1,1,1
42,2,animal,0,0,animals,1,leopard.jpg,50,(unused),512.693464433588,519.548855820852,6.8122338519444,0,2.18124654707754,0,2,1
43,2,animal,0,0,animals,1,salamander.jpg,9,(unused),523.902465704006,532.209033230372,8.25161881940957,1,1.30139295467507,0,1,0
44,2,tool,0,0,animals,1,flashlight.jpg,51,(unused),536.562547535486,543.301154103879,6.6871006978284,0,0.599634286660148,0,2,1
45,2,animal,1,0,animals,1,cat.jpg,8,(unused),547.671545951393,555.160789091985,7.4392817806526,1,1.12135375484831,1,1,1
46,2,tool,0,0,animals,1,anvil.jpg,6,(unused),559.714558956101,569.7391645283,9.97700218702738,0,0.701376469066417,0,2,1
47,2,animal,1,0,animals,1,phasmagigas.jpg,36,(unused),574.092759978529,583.883857493468,9.74101320247097,1,0.841038437120005,1,1,1
48,2,animal,1,0,animals,1,seahorse.jpg,42,(unused),588.437684447822,596.227135326322,7.7493698572194,1,1.01816186525411,1,1,1
49,2,animal,1,0,animals,1,tragopan.jpg,55,(unused),600.78090166239,609.637886123902,8.79925783512178,1,1.07878303912639,1,1,1
50,2,tool,0,0,animals,1,sawblade.jpg,34,(unused),614.208357448725,622.748441050645,8.49759292068023,0,0.647566994588487,0,2,1
51,2,tool,0,0,animals,1,blender.jpg,24,(unused),627.118704926219,636.259278734437,9.09134115430625,0,0.878137149670692,0,2,1
52,2,tool,0,0,animals,1,shovel.jpg,52,(unused),640.612889259054,649.720032883662,9.06790292239507,0,0.966686996666795,0,2,1
53,2,animal,0,0,animals,1,rat.jpg,48,(unused),654.073710120469,660.128443302181,6.00369301446231,1,0.981575681926188,0,1,0
54,2,animal,0,0,animals,1,squirel.jpg,46,(unused),664.482100974355,671.554276827686,7.02497442495741,1,1.07313142621479,0,1,0
55,2,animal,0,0,animals,1,heckcattle.jpg,37,(unused),675.907920708399,684.147735312659,8.18153871038565,1,2.07305926158642,0,1,0
56,2,tool,0,0,animals,1,television.jpg,54,(unused),688.501362515324,697.9088056071,9.35711054241985,0,0.554370707762246,0,2,1
57,2,tool,0,0,animals,1,spraybottle.jpg,49,(unused),702.262386624403,710.285416121133,7.97911354773776,0,0.786130135911662,0,2,1
58,2,tool,0,0,animals,1,abacus.jpg,12,(unused),714.6390301738,724.063204233599,9.3778840575555,0,0.612600826969356,0,2,1
59,2,animal,1,0,animals,1,quail.jpg,47,(unused),728.416775628952,737.340479656476,8.87619871968305,1,0.933781850815649,1,1,1
60,2,animal,1,0,animals,1,frog.jpg,5,(unused),741.910946170325,748.649574548471,6.69917522723054,1,1.06600765489748,1,1,1
