trial,phase,object,toShock,seenBefore,shockedCategory,responseSide,filename,num,name,onsetFixationCross,onsetStimulus,interTrialTime,response,reactionTime,wasShocked,buttonPressed,isResponseCorrect
1,3,tool,0,0,animals,2,drill.jpg,124,(unused),0.0183360263363284,7.37364299990077,6.99510338506187,,2.51071735049663,0,,0
2,3,animal,0,0,animals,2,earthworm.jpg,137,(unused),9.90899177687061,17.4311520472129,7.45144164154187,animal,0.713920233782119,0,2,1
3,3,animal,0,0,animals,2,prairiedog.jpg,152,(unused),19.9831205304408,25.970862333078,5.9293670068267,animal,1.01256204642687,0,2,1
4,3,tool,0,0,animals,2,binoculars.jpg,144,(unused),28.5228786059242,34.3437233467566,5.77508644834959,tool,1.23504741446413,0,1,1
5,3,tool,0,0,animals,2,glove.jpg,150,(unused),36.8957659199295,43.6841477185635,6.73407109133258,tool,0.794994197998676,0,1,1
6,3,tool,0,0,animals,2,smartphone.jpg,176,(unused),46.2361040138358,51.8567785723108,5.55656832129547,tool,1.30372173687829,0,1,1
7,3,animal,0,0,animals,2,springhare.jpg,169,(unused),54.4088429555104,59.6126255839526,5.13062350510609,animal,1.52212959208009,0,2,1
8,3,tool,0,0,animals,2,caulkinggun.jpg,156,(unused),62.164674251103,67.1347159339139,4.93009033125385,tool,0.61536874030844,0,1,1
9,3,animal,0,0,animals,2,deer.jpg,142,(unused),69.6868861598914,74.4236291915877,4.67401200086455,animal,0.990747849894433,0,2,1
10,3,tool,0,0,animals,2,corkscrew.jpg,151,(unused),76.9756284654413,83.9306901878181,6.89008306957031,tool,0.971088676469662,0,1,1
11,3,animal,0,0,animals,2,aardvark.jpg,175,(unused),86.4827459111539,91.302955916055,4.74831210680173,animal,0.649036045025241,0,2,1
12,3,animal,0,0,animals,2,lobsterspiny.jpg,155,(unused),93.8549362665035,99.0920924057691,5.17793758738547,animal,0.961363649592386,0,2,1
13,3,tool,0,0,animals,2,oven.jpg,128,(unused),101.644040682649,106.497567748893,4.79512019996011,animal,1.10014566222071,0,2,0
14,3,animal,0,0,animals,2,waterbuffalo.jpg,173,(unused),109.049560928769,115.320851684653,6.21272453501022,animal,0.887208595694574,0,2,1
15,3,tool,0,0,animals,2,lantern.jpg,140,(unused),117.87279867859,124.994718333016,7.05187004130539,tool,1.17165721255515,0,1,1
16,3,animal,0,0,animals,2,giraffe.jpg,171,(unused),127.546685533302,134.952027129641,7.34163789505308,animal,0.496821942405404,0,2,1
17,3,animal,0,0,animals,2,highlandcow.jpg,178,(unused),137.520782918921,144.075539557508,6.4956491872857,animal,0.468635048436227,0,2,1
18,3,tool,0,0,animals,2,wheeldolly.jpg,148,(unused),146.644256858504,150.930596532997,4.22647217467436,tool,1.042867399633,0,1,1
19,3,animal,0,0,animals,2,angelfish.jpg,132,(unused),153.482673104152,158.402893308448,4.8431362328251,animal,0.524901389919251,0,2,1
20,3,tool,0,0,animals,2,chainsaw.jpg,179,(unused),160.954859546527,167.042672809075,6.02306927113134,tool,0.746479075952266,0,1,1
21,3,animal,0,0,animals,2,dog.jpg,130,(unused),169.611343603397,177.48383737471,7.80549649726295,animal,0.735669320968555,0,2,1
22,3,tool,0,0,animals,2,typewriter.jpg,136,(unused),180.035788217475,185.37299144074,5.26082923939308,tool,1.06591450415999,0,1,1
23,3,animal,0,0,animals,2,stickinsect.jpg,162,(unused),187.924965376475,192.444961963847,4.45868453791181,animal,0.952175534260277,0,2,1
24,3,tool,0,0,animals,2,pruner.jpg,135,(unused),194.996999405249,199.51687699968,4.4564870472548,tool,0.704592598424824,0,1,1
25,3,tool,0,0,animals,2,dremel.jpg,165,(unused),202.068885895605,210.00807729527,7.86993775943885,tool,0.706749545945058,0,1,1
26,3,tool,0,0,animals,2,magnet.jpg,180,(unused),212.543356296832,217.613635901378,5.01509429423295,tool,0.645487425344072,0,1,1
27,3,animal,0,0,animals,2,penguin.jpg,164,(unused),220.165716321362,227.704587883396,7.47547829770142,tool,1.36505409859637,0,1,0
28,3,animal,0,0,animals,2,octopus.jpg,170,(unused),230.256570478995,236.427741664614,6.10292123247711,animal,0.632221476440463,0,2,1
29,3,animal,0,0,animals,2,shrimp.jpg,177,(unused),238.996429778662,245.03416304973,5.97069093880162,animal,0.699157732146887,0,2,1
30,3,tool,0,0,animals,2,crutches.jpg,121,(unused),247.602828070809,254.92483772367,7.26625487060107,tool,1.24890832807341,0,1,1
31,3,animal,0,0,animals,2,brown_bear.jpg,129,(unused),257.476805565427,264.381838614032,6.84286837470765,animal,0.846274703169911,0,2,1
32,3,animal,0,0,animals,2,sparrow.jpg,172,(unused),266.950581253148,274.406062497807,7.3916772039978,animal,0.76845203665107,0,2,1
33,3,animal,0,0,animals,2,crab.jpg,143,(unused),276.95802328338,282.99570427453,5.98521962923128,animal,0.57715981821093,0,2,1
34,3,tool,0,0,animals,2,ladder.jpg,158,(unused),285.547783411571,290.251192703668,4.63491584496023,tool,0.559965498568999,0,1,1
35,3,tool,0,0,animals,2,pencil.jpg,161,(unused),292.8032070521,299.257936813037,6.38945394494027,tool,0.715504347358547,0,1,1
36,3,tool,0,0,animals,2,carpetblower.jpg,168,(unused),301.80989824008,308.648272148616,6.77401844213769,tool,0.901557989761386,0,1,1
37,3,animal,0,0,animals,2,bluejay.jpg,139,(unused),311.200214331518,317.438178403989,6.17727470237718,animal,0.732198960795358,0,2,1
38,3,tool,0,0,animals,2,camera.jpg,133,(unused),319.990123152776,326.194672018783,6.1391675863311,tool,0.480941035416436,0,1,1
39,3,tool,0,0,animals,2,faxmachine.jpg,174,(unused),328.763324210434,334.517505000162,5.67684558100894,tool,0.872458602751976,0,1,1
40,3,animal,0,0,animals,2,gecko.jpg,122,(unused),337.069535706114,342.256605759921,5.11783090306671,animal,1.07668095982535,0,2,1
41,3,tool,0,0,animals,2,beadingtool.jpg,154,(unused),344.808615297317,351.213325365083,6.33638299731008,tool,0.74230630461534,0,1,1
42,3,animal,0,0,animals,2,otter.jpg,146,(unused),353.76530058376,358.518757152298,4.69147879577934,animal,1.27820464679735,0,2,1
43,3,animal,0,0,animals,2,beetle.jpg,125,(unused),361.070753218796,368.993218572927,7.85217072543333,animal,0.753123436520582,0,2,1
44,3,animal,0,0,animals,2,lemur.jpg,127,(unused),371.545210149125,375.631520764962,4.03325987136327,animal,0.941116888381657,0,2,1
45,3,tool,0,0,animals,2,saw.jpg,163,(unused),378.183483154213,384.354688979286,6.10376237130382,tool,0.638290116444296,0,1,1
46,3,tool,0,0,animals,2,tape.jpg,126,(unused),386.906664197963,393.811734772645,6.83444986873159,tool,0.88063704212891,0,1,1
47,3,tool,0,0,animals,2,measuringdevice.jpg,145,(unused),396.363707104701,401.750989036505,5.32571916321741,tool,0.844709192263508,0,1,1
48,3,animal,0,0,animals,2,fly.jpg,147,(unused),404.302945331777,409.056447124048,4.68603406704568,animal,0.979476235517723,0,2,1
49,3,tool,0,0,animals,2,ruler.jpg,166,(unused),411.608421059783,418.59696373944,6.91688271155389,tool,0.803427301513693,0,1,1
50,3,tool,0,0,animals,2,electricdrill.jpg,157,(unused),421.148847548446,427.370053822548,6.16547335995025,tool,0.862654674894657,0,1,1
51,3,tool,0,0,animals,2,telephone.jpg,138,(unused),429.922049247575,436.110000362324,6.12451479243641,tool,0.658078546352954,0,1,1
52,3,animal,0,0,animals,2,chimp.jpg,141,(unused),438.661941583018,443.031724817009,4.3082217927536,animal,0.754492336448493,0,2,1
53,3,animal,0,0,animals,2,palmcockatoo.jpg,160,(unused),445.567057702167,450.153742616557,4.53047572493694,animal,0.888929663411545,0,2,1
54,3,animal,0,0,animals,2,mink.jpg,134,(unused),452.705717514499,459.260489548399,6.49232703368841,animal,1.03057231766616,0,2,1
55,3,tool,0,0,animals,2,wateringcan.jpg,123,(unused),461.829147513293,468.083696507594,6.19141901877911,tool,0.484408508968045,0,1,1
56,3,animal,0,0,animals,2,duck.jpg,149,(unused),470.618746183138,478.391393971729,7.73453007681433,animal,0.864353932583072,0,2,1
57,3,tool,0,0,animals,2,hairbrush.jpg,131,(unused),480.943277459999,485.78011857267,4.77889593586026,tool,0.651839274962185,0,1,1
58,3,animal,0,0,animals,2,moth.jpg,159,(unused),488.332188022852,493.786021392321,5.39448884034501,animal,1.08105451170377,0,2,1
59,3,animal,0,0,animals,2,elephantafrican.jpg,153,(unused),496.32153517241,503.943862161163,7.55881388309159,animal,1.02499985577651,0,2,1
60,3,tool,0,0,animals,2,jumpercables.jpg,167,(unused),506.495820380849,512.96712063051,6.40339665576333,tool,0.656094796106117,0,1,1
