trial,phase,object,toShock,seenBefore,shockedCategory,responseSide,filename,num,name,onsetFixationCross,onsetStimulus,interTrialTime,response,reactionTime,wasShocked,buttonPressed,isResponseCorrect
1,2,animal,1,0,animals,2,herculesbeetle.jpg,28,(unused),0.0314743217722935,8.45419786813409,8.28896721209138,1,1.5876953448419,1,1,1
2,2,animal,1,0,animals,2,partridge.jpg,33,(unused),13.0412705519734,20.146534081246,7.04301304507798,1,0.918802344834603,1,1,1
3,2,animal,0,0,animals,2,seahorse.jpg,42,(unused),24.6999574215674,33.0059569109558,8.25168513333641,1,0.595886934382634,0,1,0
4,2,tool,0,0,animals,2,workbench.jpg,11,(unused),37.359366267201,44.9316341122935,7.5104274797877,0,0.8056291526932,0,2,1
5,2,tool,0,0,animals,2,sawblade.jpg,34,(unused),49.2849507759238,55.8230301208018,6.47938232110457,0,0.694727731449348,0,2,1
6,2,animal,1,0,animals,2,phasmagigas.jpg,36,(unused),60.1764115730416,66.2808023805001,6.03064013139098,0,1.64844140171772,1,2,0
7,2,animal,1,0,animals,2,panda.jpg,18,(unused),70.8510290636568,80.2245806212777,9.30908549501572,0,1.87722633945668,1,2,0
8,2,tool,0,0,animals,2,plunger.jpg,30,(unused),84.7780591281376,94.1182698899747,9.27938691907116,0,0.840060449825614,0,2,1
9,2,animal,1,0,animals,2,armadillo.jpg,57,(unused),98.4715801388911,107.228020190825,8.68959094460287,1,1.27686717963024,1,1,1
10,2,animal,0,0,animals,2,hippo.jpg,45,(unused),111.78154295921,121.65541461105,9.80460414948332,1,1.04106711086433,0,1,0
11,2,tool,0,0,animals,2,floorbuffer.jpg,56,(unused),126.008796384026,132.646978941649,6.5838653421549,0,1.53595971572531,0,2,1
12,2,animal,1,0,animals,2,porcupine.jpg,60,(unused),137.000332169148,145.473040769227,8.4210244321981,1,0.766397083742504,1,1,1
13,2,animal,1,0,animals,2,emu.jpg,26,(unused),150.04338452091,158.382772274965,8.28832835967665,1,0.745172399411786,1,1,1
14,2,animal,1,0,animals,2,yak.jpg,53,(unused),162.953018202263,170.341751783803,7.33313778540646,1,0.689689294484197,1,1,1
15,2,tool,0,0,animals,2,hourglass.jpg,10,(unused),174.895223875949,184.235468635769,9.28252751397458,0,0.784653038522265,0,2,1
16,2,tool,0,0,animals,2,clamp.jpg,31,(unused),188.588750018474,194.876656166079,6.22214262660569,0,0.918891509357309,0,2,1
17,2,animal,1,0,animals,2,salamander.jpg,9,(unused),199.230032486548,207.202541589027,7.906221816131,1,1.14740734985116,1,1,1
18,2,animal,1,0,animals,2,beta.jpg,17,(unused),211.756055697549,221.596668341206,9.78024347189876,0,1.2658675491175,1,2,0
19,2,tool,0,0,animals,2,woodchipper.jpg,13,(unused),226.150112208611,234.055987829876,7.83117370653754,0,0.884037161848937,0,2,1
20,2,animal,1,0,animals,2,mountainsheep.jpg,7,(unused),238.425913470513,248.016279468425,9.52133033159916,1,0.606302184467495,1,1,1
21,2,animal,1,0,animals,2,leopard.jpg,50,(unused),252.569746749536,262.577149650013,9.93302512671717,1,0.79204182662852,1,1,1
22,2,tool,0,0,animals,2,bucket.jpg,22,(unused),267.130656381613,275.069784917083,7.87781554806555,0,0.764905342045495,0,2,1
23,2,tool,0,0,animals,2,electricbreaker.jpg,41,(unused),279.43985649246,288.329659086056,8.82749978360063,0,0.833585758437948,0,2,1
24,2,tool,0,0,animals,2,loom.jpg,14,(unused),292.683031878433,301.072494812934,8.32370716759387,0,0.761253445471084,0,2,1
25,2,animal,0,0,animals,2,chinchilla.jpg,19,(unused),305.442526296349,313.348170346445,7.87317237953727,1,0.717078518791823,0,1,0
26,2,tool,0,0,animals,2,spoon.jpg,44,(unused),317.701666622062,325.390562303421,7.61929150431797,0,0.876182665519082,0,2,1
27,2,animal,1,0,animals,2,cat.jpg,8,(unused),329.743939265361,338.116842936886,8.30734145211949,1,1.11734800091926,1,1,1
28,2,animal,0,0,animals,2,caterpillarpeacockmoth.jpg,1,(unused),342.670301878869,348.991489806891,6.26350519064043,0,1.05114366405905,0,2,1
29,2,animal,1,0,animals,2,firebug.jpg,15,(unused),353.34485201499,361.967951656022,8.55486596644415,0,1.6732474207729,1,2,0
30,2,tool,0,0,animals,2,spraybottle.jpg,49,(unused),366.521370185308,372.826031565395,6.24632866861448,0,0.847643603760844,0,2,1
31,2,animal,1,0,animals,2,squirel.jpg,46,(unused),377.179324173849,386.853083375756,9.60414660202253,1,0.854173140951389,1,1,1
32,2,animal,1,0,animals,2,rhino.jpg,35,(unused),391.40658529632,398.32831167542,6.86583585697209,1,1.26438959905499,1,1,1
33,2,animal,0,0,animals,2,ferret.jpg,21,(unused),402.881817124078,412.755755488942,9.81503988599317,1,0.863537660913607,0,1,0
34,2,tool,0,0,animals,2,vegetablepeeler.jpg,3,(unused),417.125755860995,426.582731092502,9.38997435506042,0,0.805044451529284,0,2,1
35,2,animal,0,0,animals,2,tragopan.jpg,55,(unused),430.936014399621,438.808392385349,7.81794966722677,1,0.712959951787525,0,1,0
36,2,animal,0,0,animals,2,frog.jpg,5,(unused),443.161821306471,452.051748345517,8.81945936970619,1,1.18115066892642,0,1,0
37,2,animal,0,0,animals,2,rat.jpg,48,(unused),456.40502010615,465.911999635516,9.46333502057144,1,0.951463822425467,0,1,0
38,2,tool,0,0,animals,2,viceclamp.jpg,4,(unused),470.265277490127,480.005752923056,9.68791915050999,0,0.64932214192504,0,2,1
39,2,tool,0,0,animals,2,italiangardeningtool.jpg,2,(unused),484.359174146522,494.21649006348,9.79861223187245,0,0.61710360032248,0,2,1
40,2,tool,0,0,animals,2,compass.jpg,32,(unused),498.586483058612,507.309603483317,8.65555313344213,0,0.76941007482219,0,2,1
41,2,animal,0,0,animals,2,mahimahi.jpg,39,(unused),511.646237079996,517.750757464673,6.0400830700131,0,1.73584957509047,0,2,1
42,2,tool,0,0,animals,2,anvil.jpg,6,(unused),522.104012547052,532.094681383602,9.93222496650756,0,0.559520959564907,0,2,1
43,2,tool,0,0,animals,2,pressuregauge.jpg,38,(unused),536.448072137177,545.654845305199,9.13496616204962,0,0.625766992063291,0,2,1
44,2,animal,0,0,animals,2,heckcattle.jpg,37,(unused),550.008135027031,559.631928098627,9.55339187947926,1,0.631247402810914,0,1,0
45,2,tool,0,0,animals,2,monkeywrench.jpg,16,(unused),563.985231291358,570.539988892153,6.49666980939885,0,0.619701559417081,0,2,1
46,2,animal,1,0,animals,2,flounder.jpg,29,(unused),574.876707804525,584.834003450987,9.89551427323803,0,1.23726113286466,1,2,0
47,2,tool,0,0,animals,2,flashlight.jpg,51,(unused),589.370839624328,596.726131057606,7.29978338377616,0,0.835569508684785,0,2,1
48,2,tool,0,0,animals,2,washboard.jpg,59,(unused),601.062912834174,607.801125476805,6.67899487253093,0,0.895021397048367,0,2,1
49,2,tool,0,0,animals,2,nailgun.jpg,25,(unused),612.154445989264,619.10952406916,6.89130182938548,0,0.695154951389668,0,2,1
50,2,animal,1,0,animals,2,quail.jpg,47,(unused),623.462871844153,631.61871827847,8.10706833307927,1,1.29761108116236,1,1,1
51,2,tool,0,0,animals,2,television.jpg,54,(unused),636.189096990344,643.944670093706,7.68456348888884,0,0.724008975596007,0,2,1
52,2,tool,0,0,animals,2,blower.jpg,27,(unused),648.298090034228,657.738331522544,9.37346830446942,0,0.684918030349763,0,2,1
53,2,animal,1,0,animals,2,cockatiel.jpg,20,(unused),662.09169020255,671.44855420292,9.2940965274407,1,0.940205999682803,1,1,1
54,2,tool,0,0,animals,2,edger.jpg,40,(unused),676.002057406428,684.358094229451,8.30376616430933,0,0.679237801267846,0,2,1
55,2,tool,0,0,animals,2,shovel.jpg,52,(unused),688.711488831855,697.751556417279,8.97633954103035,0,0.607239053420017,0,2,1
56,2,tool,0,0,animals,2,kettle.jpg,58,(unused),702.088146393904,710.877937825899,8.71766335395244,0,0.797478296586633,0,2,1
57,2,animal,1,0,animals,2,racoon.jpg,23,(unused),715.231329220946,723.403920944938,8.10858237735486,1,0.751005940153846,1,1,1
58,2,tool,0,0,animals,2,scale.jpg,43,(unused),727.974110102019,734.912527566462,6.86847732834476,0,0.694877515017652,0,2,1
59,2,tool,0,0,animals,2,abacus.jpg,12,(unused),739.26588239764,748.205893276994,8.87571524205514,0,0.624022510643044,0,2,1
60,2,tool,0,0,animals,2,blender.jpg,24,(unused),752.559101211225,761.03200289419,8.41157042954505,0,0.754463791635317,0,2,1
