"trial","phase","object","toShock","seenBefore","shockedCategory","responseSide","filename","num","name","onsetFixationCross","onsetStimulus","interTrialTime","response","reactionTime","wasShocked","buttonPressed","isResponseCorrect"
1,3,"animal",0,0,"tools",2,"elephantafrican.jpg",151,"(unused)",0.0185495766454551,4.95571763621047,4.8627679099403,"animal",0.627348979436647,0,2,1
2,3,"animal",0,0,"tools",2,"bluejay.jpg",137,"(unused)",7.54132062237841,11.6445295416288,4.05386393355432,"animal",0.751679245156993,0,2,1
3,3,"animal",0,0,"tools",2,"moth.jpg",157,"(unused)",14.1967238324851,19.0004944545271,4.7556937667029,"animal",0.598094120066889,0,2,1
4,3,"tool",0,0,"tools",2,"corkscrew.jpg",149,"(unused)",21.5526826514251,25.9561939273353,4.34895533978625,"tool",1.27462188398931,0,1,1
5,3,"tool",0,0,"tools",2,"wateringcan.jpg",121,"(unused)",28.508363521616,35.5306382303006,6.97002183314726,"tool",1.05959937322041,0,1,1
6,3,"tool",0,0,"tools",2,"camera.jpg",131,"(unused)",38.0828184088277,45.5887944993337,7.45205704745365,"tool",1.19176230263292,0,1,1
7,3,"animal",0,0,"tools",2,"angelfish.jpg",130,"(unused)",48.1576493575521,55.6803431062071,7.46636580624677,"animal",0.517562431630722,0,2,1
8,3,"animal",0,0,"tools",2,"waterbuffalo.jpg",171,"(unused)",58.2492024547118,63.0363003214716,4.73570271488218,"animal",0.632892879848441,0,2,1
9,3,"tool",0,0,"tools",2,"drill.jpg",122,"(unused)",65.5885119320064,73.4114037985255,7.77620352403697,"tool",0.728258230423307,0,1,1
10,3,"tool",0,0,"tools",2,"carpetblower.jpg",166,"(unused)",75.963626634777,81.3846076918617,5.3711676675367,"tool",1.36232872984692,0,1,1
11,3,"tool",0,0,"tools",2,"tape.jpg",124,"(unused)",83.9534449096664,89.2743647384832,5.27548780518637,"tool",0.984904095301317,0,1,1
12,3,"animal",0,0,"tools",2,"octopus.jpg",168,"(unused)",91.8431644303218,97.0139726915513,5.12236234953017,"animal",1.10659246876276,0,2,1
13,3,"animal",0,0,"tools",2,"aardvark.jpg",173,"(unused)",99.5661371540755,106.238090278048,6.6282893448418,"animal",0.812817706033456,0,2,1
14,3,"tool",0,0,"tools",2,"ladder.jpg",156,"(unused)",108.806959890066,113.894279288328,5.04921465163564,"tool",0.714830990225892,0,1,1
15,3,"tool",0,0,"tools",2,"binoculars.jpg",142,"(unused)",116.463180973822,123.602243870229,7.08811342963951,"tool",1.65833773094892,0,1,1
16,3,"tool",0,0,"tools",2,"oven.jpg",126,"(unused)",126.17110161506,134.127442557397,7.9062476803446,"tool",1.01352293763557,0,1,1
17,3,"animal",0,0,"tools",2,"beetle.jpg",123,"(unused)",136.696318263375,140.799531352175,4.04570181201755,"animal",1.23380068752704,0,2,1
18,3,"animal",0,0,"tools",2,"shrimp.jpg",175,"(unused)",143.368410906971,149.590030611118,6.17819929869188,"animal",0.639438434929616,0,2,1
19,3,"tool",0,0,"tools",2,"pencil.jpg",159,"(unused)",152.142232278875,156.212080613026,4.01625839646536,"tool",1.03264097476495,0,1,1
20,3,"tool",0,0,"tools",2,"hairbrush.jpg",129,"(unused)",158.78094862137,165.069263516196,6.24267003477908,"tool",0.830868017130342,0,1,1
21,3,"animal",0,0,"tools",2,"tiger.jpg",180,"(unused)",167.621458769258,175.144122689579,7.47183769129282,"animal",0.861307670724273,0,2,1
22,3,"tool",0,0,"tools",2,"smartphone.jpg",174,"(unused)",177.696324357335,184.918582002931,7.20425539294707,"tool",0.931220793298053,0,1,1
23,3,"tool",0,0,"tools",2,"magnet.jpg",178,"(unused)",187.470894644915,194.376426389479,6.86293433087128,"tool",0.884739269706188,0,1,1
24,3,"tool",0,0,"tools",2,"transmissionwrench.jpg",179,"(unused)",196.945282209901,202.366280265927,5.36972313818059,"tool",0.606211275495298,0,1,1
25,3,"animal",0,0,"tools",2,"chimp.jpg",139,"(unused)",204.918464614007,212.107408501781,7.15036718317316,"animal",0.759422744584299,0,2,1
26,3,"tool",0,0,"tools",2,"lantern.jpg",138,"(unused)",214.659758669733,218.979795836478,4.27904128485166,"tool",0.735276869281734,0,1,1
27,3,"animal",0,0,"tools",2,"giraffe.jpg",169,"(unused)",221.531875304288,229.454979144415,7.88106832929888,"animal",0.707569875883564,0,2,1
28,3,"tool",0,0,"tools",2,"wheeldolly.jpg",146,"(unused)",232.007145852082,238.745822712126,6.68044586776924,"tool",0.909968587044204,0,1,1
29,3,"tool",0,0,"tools",2,"telephone.jpg",136,"(unused)",241.298018927393,247.452909442976,6.10699484594706,"tool",0.874333030260459,0,1,1
30,3,"animal",0,0,"tools",2,"dog.jpg",128,"(unused)",250.005123298653,255.609536095842,5.55337214822831,"animal",0.783938747807042,0,2,1
31,3,"tool",0,0,"tools",2,"measuringdevice.jpg",143,"(unused)",258.178435536192,264.09977790099,5.88128786379366,"tool",1.12002035042678,0,1,1
32,3,"tool",0,0,"tools",2,"faxmachine.jpg",172,"(unused)",266.651946212331,271.172187302238,4.46926787898704,"tool",1.02894643100808,0,1,1
33,3,"tool",0,0,"tools",2,"typewriter.jpg",134,"(unused)",273.741101175654,278.795054215594,4.99985922059045,"tool",1.15636024075502,0,1,1
34,3,"animal",0,0,"tools",2,"earthworm.jpg",135,"(unused)",281.347261656576,288.035892346852,6.63222323030838,"animal",1.26581162073308,0,2,1
35,3,"animal",0,0,"tools",2,"stickinsect.jpg",160,"(unused)",290.604772222381,298.444220738196,7.78722264020945,"animal",0.970108600598905,0,2,1
36,3,"animal",0,0,"tools",2,"mink.jpg",132,"(unused)",300.996571226884,306.150622700323,5.10499263144699,"animal",0.890831305830943,0,2,1
37,3,"animal",0,0,"tools",2,"highlandcow.jpg",176,"(unused)",308.702838801144,314.307106946955,5.55797209685916,"animal",0.989659950393616,0,2,1
38,3,"animal",0,0,"tools",2,"sparrow.jpg",170,"(unused)",316.859486301772,321.429736356216,4.51595041552221,"animal",0.916223235693906,0,2,1
39,3,"animal",0,0,"tools",2,"springhare.jpg",167,"(unused)",323.981932571482,328.718976891574,4.68960740104987,"animal",0.760246712194203,0,2,1
40,3,"tool",0,0,"tools",2,"pruner.jpg",133,"(unused)",331.271196199741,336.808887185267,5.49180804441824,"tool",1.35773997756769,0,1,1
41,3,"tool",0,0,"tools",2,"saw.jpg",161,"(unused)",339.361094626249,346.53345524374,7.13086890816094,"tool",1.36454019605299,0,1,1
42,3,"animal",0,0,"tools",2,"lobsterspiny.jpg",153,"(unused)",349.085643440638,356.074550508059,6.9355301695947,"animal",0.891792868655102,0,2,1
43,3,"animal",0,0,"tools",2,"crab.jpg",141,"(unused)",358.626748006265,365.465491867802,6.79211399008232,"animal",0.892149525712739,0,2,1
44,3,"animal",0,0,"tools",2,"fly.jpg",145,"(unused)",368.017682951311,373.238513006469,5.17804825032931,"animal",0.887476740923375,0,2,1
45,3,"animal",0,0,"tools",2,"otter.jpg",144,"(unused)",375.790704731447,381.461867244225,5.62728409418189,"animal",0.82735982027225,0,2,1
46,3,"animal",0,0,"tools",2,"palmcockatoo.jpg",158,"(unused)",384.014055120386,388.133841857427,4.07270673708349,"animal",0.954641487296612,0,2,1
47,3,"tool",0,0,"tools",2,"beadingtool.jpg",152,"(unused)",390.68615834823,397.391541015273,6.66234484224002,"tool",0.983359757408834,0,1,1
48,3,"tool",0,0,"tools",2,"caulkinggun.jpg",154,"(unused)",399.960350008419,406.598969809749,6.585945855599,"tool",0.76127659152553,0,1,1
49,3,"tool",0,0,"tools",2,"glove.jpg",148,"(unused)",409.151174684854,415.155950746237,5.95675646781358,"tool",0.828614213938636,0,1,1
50,3,"animal",0,0,"tools",2,"lemur.jpg",125,"(unused)",417.724794378739,422.578627848758,4.80978891156338,"animal",1.42529794476286,0,2,1
51,3,"animal",0,0,"tools",2,"deer.jpg",140,"(unused)",425.130795197894,429.300786547677,4.12381937951646,"animal",1.20832825323669,0,2,1
52,3,"animal",0,0,"tools",2,"duck.jpg",147,"(unused)",431.852952934611,439.892537698555,7.98644699384794,"animal",0.729959407613933,0,2,1
53,3,"animal",0,0,"tools",2,"prairiedog.jpg",150,"(unused)",442.461557735176,448.749911438908,6.23819134374237,"animal",0.920933546451124,0,2,1
54,3,"tool",0,0,"tools",2,"jumpercables.jpg",165,"(unused)",451.302093221111,457.823800068894,6.47722603517064,"tool",0.799312527289658,0,1,1
55,3,"tool",0,0,"tools",2,"ruler.jpg",164,"(unused)",460.39284127401,464.612795723258,4.16031285634564,"tool",1.7356117163763,0,1,1
56,3,"animal",0,0,"tools",2,"brown_bear.jpg",127,"(unused)",467.16499707028,472.769269385642,5.56388790786772,"animal",0.82940707027592,0,2,1
57,3,"animal",0,0,"tools",2,"penguin.jpg",162,"(unused)",475.321641363558,483.027676084381,7.66495462792284,"animal",0.968458099498093,0,2,1
58,3,"tool",0,0,"tools",2,"dremel.jpg",163,"(unused)",485.596645444908,491.201143557544,5.56357763349223,"tool",1.13430202803829,0,1,1
59,3,"tool",0,0,"tools",2,"chainsaw.jpg",177,"(unused)",493.769936193219,498.573620216874,4.76650171609592,"tool",0.718098956745962,0,1,1
60,3,"tool",0,0,"tools",2,"electricdrill.jpg",155,"(unused)",501.142633518066,507.330821433998,6.13461573007076,"tool",0.771210067929132,0,1,1
