"trial","phase","object","toShock","seenBefore","shockedCategory","responseSide","filename","num","name","onsetFixationCross","onsetStimulus","interTrialTime","response","reactionTime","wasShocked","buttonPressed","isResponseCorrect"
1,1,"animal",0,0,"tools",2,"ant.jpg",112,"(unused)",0.0184418148219265,5.35579416858309,5.28137797354437,"animal",1.18434594760583,0,2,1
2,1,"animal",0,0,"tools",2,"baldeagle.jpg",71,"(unused)",7.92486039101095,14.16317979216,6.19651731092733,"animal",0.873072216842047,0,2,1
3,1,"animal",0,0,"tools",2,"turtle.jpg",78,"(unused)",16.7153522730532,20.8185143650262,4.05616773554125,"animal",0.733131469383807,0,2,1
4,1,"tool",0,0,"tools",2,"tubeflaring.jpg",109,"(unused)",23.3707384842164,29.1587097117426,5.73164104264129,"tool",0.840321027797472,0,1,1
5,1,"tool",0,0,"tools",2,"gardenhose.jpg",114,"(unused)",31.7108873243924,37.8990973710224,6.13695543669312,"tool",0.936272681523405,0,1,1
6,1,"animal",0,0,"tools",2,"caiman.jpg",64,"(unused)",40.451324376827,44.504496427613,4.00640587445974,"animal",0.848056829592679,0,2,1
7,1,"tool",0,0,"tools",2,"crutches.jpg",119,"(unused)",47.0566753232015,54.0789532392337,6.96598729472922,"tool",1.4820474660628,0,1,1
8,1,"tool",0,0,"tools",2,"reflexhammer.jpg",93,"(unused)",56.6478513966449,62.419061025359,5.71604805042264,"tool",0.897156831806569,0,1,1
9,1,"tool",0,0,"tools",2,"clippers.jpg",61,"(unused)",64.971274881038,72.994335069161,7.97512772415516,"tool",0.932420656996328,0,1,1
10,1,"tool",0,0,"tools",2,"shoehorn.jpg",102,"(unused)",75.5465303222227,82.3352402019118,6.73596705129757,"tool",1.39385663144276,0,1,1
11,1,"animal",0,0,"tools",2,"crow.jpg",75,"(unused)",84.9041120590718,91.2258006891207,6.2765664428347,"animal",1.01657953488757,0,2,1
12,1,"tool",0,0,"tools",2,"airhorn.jpg",89,"(unused)",93.7946741499545,101.233951200966,7.39139215281101,"tool",1.36875560800945,0,1,1
13,1,"tool",0,0,"tools",2,"padlock.jpg",84,"(unused)",103.802798361548,109.824263214952,5.98037574813317,"tool",0.99982306783204,0,1,1
14,1,"tool",0,0,"tools",2,"wrench.jpg",118,"(unused)",112.393115828027,119.34873223053,6.90718670250258,"tool",0.721916016125761,0,1,1
15,1,"animal",0,0,"tools",2,"starfish.jpg",105,"(unused)",121.900872317212,129.90726007079,7.95851574068771,"animal",1.22648536395172,0,2,1
16,1,"tool",0,0,"tools",2,"stopwatch.jpg",111,"(unused)",132.459456927523,140.115444516372,7.61118926052017,"tool",0.926714785529839,0,1,1
17,1,"tool",0,0,"tools",2,"level.jpg",100,"(unused)",142.667759724234,148.672522314759,5.96228180616897,"tool",1.16796313655141,0,1,1
18,1,"tool",0,0,"tools",2,"ducttape.jpg",83,"(unused)",151.224706021369,157.096014404317,5.81580542833563,"tool",0.974752834936226,0,1,1
19,1,"animal",0,0,"tools",2,"catfish.jpg",87,"(unused)",159.648220241625,164.752252487015,5.04211604623653,"animal",0.86179229589834,0,2,1
20,1,"tool",0,0,"tools",2,"hoe.jpg",91,"(unused)",167.30444998522,173.959747352854,6.61787107411502,"tool",0.942656265548067,0,1,1
21,1,"animal",0,0,"tools",2,"cheetah.jpg",67,"(unused)",176.511935229015,183.650800232073,7.09951252330875,"animal",0.81400858915913,0,2,1
22,1,"tool",0,0,"tools",2,"keys.jpg",72,"(unused)",186.219837909108,190.973592510449,4.71279787384847,"tool",1.01956333040471,0,1,1
23,1,"tool",0,0,"tools",2,"curlingiron.jpg",99,"(unused)",193.52578648057,200.781550966316,7.21733757143606,"tool",0.975924158297858,0,1,1
24,1,"animal",0,0,"tools",2,"pelican.jpg",92,"(unused)",203.333728578964,208.721328203192,5.33605784945475,"animal",0.776412060022267,0,2,1
25,1,"tool",0,0,"tools",2,"lighterbic.jpg",69,"(unused)",211.273552643117,215.393419563849,4.06950130587664,"tool",0.813582974125893,0,1,1
26,1,"animal",0,0,"tools",2,"shark.jpg",110,"(unused)",217.962304250399,225.551681964016,7.53652242858671,"animal",0.757753635811241,0,2,1
27,1,"tool",0,0,"tools",2,"hammer.jpg",63,"(unused)",228.103891970875,233.991888504375,5.84692744373953,"tool",0.947887128826551,0,1,1
28,1,"animal",0,0,"tools",2,"gecko.jpg",120,"(unused)",236.544049759552,244.066725867793,7.47755926113612,"animal",0.813362629343828,0,2,1
29,1,"tool",0,0,"tools",2,"generator.jpg",66,"(unused)",246.635611195814,253.224188034723,6.54702244908535,"tool",0.910250828581411,0,1,1
30,1,"animal",0,0,"tools",2,"manatee.jpg",65,"(unused)",255.776373986477,261.29743808179,5.47130667634472,"animal",0.69054975979634,0,2,1
31,1,"animal",0,0,"tools",2,"goldfish.jpg",98,"(unused)",263.849610241949,270.721800324765,6.82403319841216,"animal",0.846286052956202,0,2,1
32,1,"tool",0,0,"tools",2,"paintgun.jpg",94,"(unused)",273.273947146878,280.72989759464,7.40400118070015,"tool",0.705800056395674,0,1,1
33,1,"animal",0,0,"tools",2,"seal.jpg",107,"(unused)",283.282079376841,290.270901770285,6.95099698436516,"animal",0.597980895636283,0,2,1
34,1,"animal",0,0,"tools",2,"ram.jpg",97,"(unused)",292.839851245259,298.31083388998,5.41402463595729,"animal",1.00641031843224,0,2,1
35,1,"animal",0,0,"tools",2,"rooster.jpg",106,"(unused)",300.863042613901,305.800100982176,4.89282590282231,"animal",0.802385161279744,0,2,1
36,1,"tool",0,0,"tools",2,"avocadoslicer.jpg",76,"(unused)",308.352464941723,314.924353950817,6.51809499154522,"tool",0.770478787606407,0,1,1
37,1,"tool",0,0,"tools",2,"mixer.jpg",116,"(unused)",317.476545355061,325.482929259821,7.95371969236911,"tool",0.651217734846796,0,1,1
38,1,"tool",0,0,"tools",2,"carjack.jpg",88,"(unused)",328.051790853468,333.122468607722,5.02378033858957,"tool",0.744125294917467,0,1,1
39,1,"animal",0,0,"tools",2,"dolphin.jpg",86,"(unused)",335.674652635067,342.013020435092,6.2972236472459,"animal",0.532747934752479,0,2,1
40,1,"animal",0,0,"tools",2,"macaw.jpg",81,"(unused)",344.565166615734,351.470716000709,6.84361705091704,"animal",0.933426481220522,0,2,1
41,1,"tool",0,0,"tools",2,"stove.jpg",101,"(unused)",354.03960132873,359.243710197656,5.1586156703248,"tool",0.592779219219665,0,1,1
42,1,"animal",0,0,"tools",2,"baboon.jpg",113,"(unused)",361.795887168835,366.466249127639,4.61955079575727,"animal",0.84952322893696,0,2,1
43,1,"animal",0,0,"tools",2,"orangutan.jpg",73,"(unused)",369.035125475086,375.840553975127,6.7566903646289,"animal",0.709492675743604,0,2,1
44,1,"tool",0,0,"tools",2,"mallet.jpg",82,"(unused)",378.392730625574,385.548418808517,7.10225485077682,"tool",0.697061316992404,0,1,1
45,1,"animal",0,0,"tools",2,"stinkbug.jpg",62,"(unused)",388.100604439536,394.972758920794,6.8135101319732,"animal",0.869098313105496,0,2,1
46,1,"tool",0,0,"tools",2,"eraser.jpg",117,"(unused)",397.524935891974,402.679004043621,5.10452246787456,"tool",1.16223641732722,0,1,1
47,1,"animal",0,0,"tools",2,"prayingmantis.jpg",96,"(unused)",405.231172034228,411.619621284846,6.3459234016258,"animal",0.69383600819674,0,2,1
48,1,"animal",0,0,"tools",2,"hedgehog.jpg",108,"(unused)",414.171812368357,421.427587438349,7.19399989559087,"animal",0.81427319533941,0,2,1
49,1,"tool",0,0,"tools",2,"electricsander.jpg",103,"(unused)",423.996484633555,430.601657251402,6.56561622572342,"tool",0.94346580009551,0,1,1
50,1,"animal",0,0,"tools",2,"dragonfly.jpg",68,"(unused)",433.153915368477,439.158667374753,5.95090341115009,"animal",0.795775459246215,0,2,1
51,1,"tool",0,0,"tools",2,"thermometer.jpg",79,"(unused)",441.710876419409,449.400383357062,7.6417925218995,"tool",1.051461685709,0,1,1
52,1,"animal",0,0,"tools",2,"malaysianjunglenymph.jpg",85,"(unused)",451.95251574611,458.958114171432,6.95830839331751,"animal",0.508140201385686,0,2,1
53,1,"tool",0,0,"tools",2,"pliers2.jpg",70,"(unused)",461.510245277539,467.081273434524,5.53375642388275,"tool",0.819225981578711,0,1,1
54,1,"animal",0,0,"tools",2,"kangaroo.jpg",115,"(unused)",469.633552720094,475.988627914756,6.30329570373525,"animal",0.757291777748833,0,2,1
55,1,"animal",0,0,"tools",2,"flea.jpg",77,"(unused)",478.540827016634,485.863314917717,7.27056645490868,"animal",0.890976914355633,0,2,1
56,1,"animal",0,0,"tools",2,"cow.jpg",80,"(unused)",488.415503114613,496.221734413772,7.74777496676712,"animal",0.604938274156666,0,2,1
57,1,"tool",0,0,"tools",2,"magnifyingglass.jpg",74,"(unused)",498.773915875237,503.5275184483,4.71079327478802,"tool",0.76335558921528,0,1,1
58,1,"animal",0,0,"tools",2,"gerbil.jpg",90,"(unused)",506.096555804599,512.835069410648,6.68079239504046,"animal",0.641231978677752,0,2,1
59,1,"tool",0,0,"tools",2,"burnisher.jpg",95,"(unused)",515.387405466272,521.291959932007,5.87023286048904,"tool",0.686583232958583,0,1,1
60,1,"animal",0,0,"tools",2,"wasp.jpg",104,"(unused)",523.827600780915,528.281113323728,4.41304601223001,"animal",0.728698594199159,0,2,1
