trial,phase,object,toShock,seenBefore,shockedCategory,responseSide,filename,num,name,onsetFixationCross,onsetStimulus,interTrialTime,response,reactionTime,wasShocked,buttonPressed,isResponseCorrect
1,3,animal,0,0,animals,2,yak.jpg,53,(unused),0.0184643193838383,7.30760337498396,7.22145438477878,animal,0.535785877547823,0,2,1
2,3,animal,0,0,animals,2,mountainsheep.jpg,7,(unused),9.87646564851275,15.3307040423711,5.41137811578964,animal,0.616046776787698,0,2,1
3,3,tool,0,0,animals,2,vegetablepeeler.jpg,3,(unused),17.8830295044227,23.1705764280541,5.23828380119985,tool,0.618462558010378,0,1,1
4,3,animal,0,0,animals,2,emu.jpg,26,(unused),25.7227764824511,33.2620217015647,7.49154170804815,animal,0.66849059030983,0,2,1
5,3,tool,0,0,animals,2,plunger.jpg,30,(unused),35.8310167596692,41.218605635529,5.32846531415829,tool,0.59729945493109,0,1,1
6,3,tool,0,0,animals,2,shovel.jpg,52,(unused),43.7708316695171,51.7772184793257,7.94870082561009,tool,0.554972607301352,0,1,1
7,3,animal,0,0,animals,2,quail.jpg,47,(unused),54.3294182129871,60.3175166737124,5.93556166861984,animal,0.582096903927322,0,2,1
8,3,animal,0,0,animals,2,squirel.jpg,46,(unused),62.886412945224,68.3407347303619,5.39839226938278,animal,0.55613014240862,0,2,1
9,3,animal,0,0,animals,2,beta.jpg,17,(unused),70.8929344640228,75.4132007901112,4.45852413898226,tool,0.698189111589727,0,1,0
10,3,tool,0,0,animals,2,clamp.jpg,31,(unused),77.982088401759,83.8033969264006,5.77176346840245,tool,0.606104611847513,0,1,1
11,3,tool,0,0,animals,2,kettle.jpg,58,(unused),86.3555860757838,94.3953534526022,7.98363980613609,tool,0.912589053600641,0,1,1
12,3,tool,0,0,animals,2,viceclamp.jpg,4,(unused),96.9475464508137,102.785502761481,5.77404322049767,tool,0.616823277895037,0,1,1
13,3,animal,0,0,animals,2,tragopan.jpg,55,(unused),105.354340017625,112.510153736902,7.11110491725859,animal,0.49850131571111,0,2,1
14,3,animal,0,0,animals,2,cat.jpg,8,(unused),115.062327811708,121.167019469244,6.05030519452324,animal,0.617057414949613,0,2,1
15,3,animal,0,0,animals,2,seahorse.jpg,42,(unused),123.736065845059,131.008560642726,7.21500151853671,animal,0.638919401098974,0,2,1
16,3,tool,0,0,animals,2,workbench.jpg,11,(unused),133.560742735925,140.282755981026,6.66662822267501,tool,0.544105761364335,0,1,1
17,3,tool,0,0,animals,2,blender.jpg,24,(unused),142.834963733079,148.956512296311,6.07337548633506,tool,0.538700402769337,0,1,1
18,3,tool,0,0,animals,2,woodchipper.jpg,13,(unused),151.508728066757,158.230786214855,6.67490373102063,tool,0.611741862347117,0,1,1
19,3,animal,0,0,animals,2,racoon.jpg,23,(unused),160.782954837154,168.489123739134,7.65466796727432,animal,0.611885551937121,0,2,1
20,3,tool,0,0,animals,2,spraybottle.jpg,49,(unused),171.041317699553,175.945187760544,4.85483398424914,tool,0.645021397614528,0,1,1
21,3,tool,0,0,animals,2,bucket.jpg,22,(unused),178.497383324641,183.901706905899,5.36346345771407,tool,0.561856878166054,0,1,1
22,3,tool,0,0,animals,2,monkeywrench.jpg,16,(unused),186.453897017489,192.992441429119,6.48747741001305,tool,0.56449236333674,0,1,1
23,3,animal,0,0,animals,2,caterpillarpeacockmoth.jpg,1,(unused),195.544645011608,201.783042718733,6.19425186351003,animal,0.665249876890812,0,2,1
24,3,animal,0,0,animals,2,salamander.jpg,9,(unused),204.351840524388,209.255700321837,4.84439677886737,animal,0.5689586078297,0,2,1
25,3,animal,0,0,animals,2,leopard.jpg,50,(unused),211.807917375225,216.178016533871,4.32680150441491,animal,0.717935204387686,0,2,1
26,3,tool,0,0,animals,2,compass.jpg,32,(unused),218.746933332468,223.951036375864,5.15857838980626,tool,0.646211968498392,0,1,1
27,3,animal,0,0,animals,2,porcupine.jpg,60,(unused),226.503241882768,231.307045936353,4.74934128587381,animal,0.827524175185772,0,2,1
28,3,animal,0,0,animals,2,firebug.jpg,15,(unused),233.859279667998,238.512929062834,4.59772468644794,animal,0.534917646033136,0,2,1
29,3,tool,0,0,animals,2,washboard.jpg,59,(unused),241.081815070803,245.868929001253,4.73324362515908,tool,0.584130368206843,0,1,1
30,3,tool,0,0,animals,2,italiangardeningtool.jpg,2,(unused),248.437816292165,253.575305419225,5.07865895916152,tool,0.625153745989792,0,1,1
31,3,tool,0,0,animals,2,edger.jpg,40,(unused),256.12743491177,262.499149936826,6.31813796559224,tool,0.825638890795744,0,1,1
32,3,animal,0,0,animals,2,heckcattle.jpg,37,(unused),265.051367631685,272.974379840169,7.87732386460562,animal,0.615876145400762,0,2,1
33,3,animal,0,0,animals,2,panda.jpg,18,(unused),275.526575404266,279.880048907649,4.30408821462734,animal,0.612444273510391,0,2,1
34,3,animal,0,0,animals,2,herculesbeetle.jpg,28,(unused),282.432218492155,287.019176994088,4.53732727303469,animal,0.635658160595995,0,2,1
35,3,tool,0,0,animals,2,scale.jpg,43,(unused),289.571434460174,295.55947037744,5.93346983278849,tool,0.683627711232475,0,1,1
36,3,animal,0,0,animals,2,phasmagigas.jpg,36,(unused),298.111670111101,303.415830181303,5.24560247057113,animal,0.566658932927567,0,2,1
37,3,animal,0,0,animals,2,cockatiel.jpg,20,(unused),305.968077063111,313.740948725215,7.71310196473154,animal,0.562951549078207,0,2,1
38,3,tool,0,0,animals,2,blower.jpg,27,(unused),316.29316225051,321.330484338423,4.98575556043872,tool,0.722680168195893,0,1,1
39,3,tool,0,0,animals,2,flashlight.jpg,51,(unused),323.882667714563,329.170260824135,5.23887418933269,tool,0.565210490547997,0,1,1
40,3,animal,0,0,animals,2,ferret.jpg,21,(unused),331.739103853522,338.377813379885,6.5894689546987,animal,0.512023532430703,0,2,1
41,3,tool,0,0,animals,2,nailgun.jpg,25,(unused),340.929895724283,348.035598340717,7.05343132291097,tool,0.496737269412279,0,1,1
42,3,tool,0,0,animals,2,electricbreaker.jpg,41,(unused),350.587818922198,355.825309588789,5.19643588701524,tool,0.59832933723419,0,1,1
43,3,tool,0,0,animals,2,loom.jpg,14,(unused),358.377529849534,365.549729955249,7.11713260705584,tool,0.592280582842704,0,1,1
44,3,animal,0,0,animals,2,rat.jpg,48,(unused),368.102082359099,373.339430298308,5.19746307541759,animal,0.546824637814552,0,2,1
45,3,tool,0,0,animals,2,pressuregauge.jpg,38,(unused),375.908405150064,380.695578737351,4.73776182852605,tool,0.594055534155359,0,1,1
46,3,tool,0,0,animals,2,television.jpg,54,(unused),383.247782961312,390.753794831098,7.45182871643441,tool,0.612242210025215,0,1,1
47,3,animal,0,0,animals,2,partridge.jpg,33,(unused),393.306018940672,400.828675068391,7.46384954811781,animal,0.477668891129269,0,2,1
48,3,animal,0,0,animals,2,armadillo.jpg,57,(unused),403.397543115163,408.084544531531,4.64552285318864,animal,0.574157733376069,0,2,1
49,3,tool,0,0,animals,2,hourglass.jpg,10,(unused),410.636778583911,418.259574808981,7.56572933964792,tool,0.642582523421879,0,1,1
50,3,tool,0,0,animals,2,spoon.jpg,44,(unused),420.811780315884,428.034229440789,7.18133447903182,tool,0.580253635913323,0,1,1
51,3,tool,0,0,animals,2,anvil.jpg,6,(unused),430.586421797529,435.573700137093,4.94209616788208,tool,0.744206664812737,0,1,1
52,3,animal,0,0,animals,2,rhino.jpg,35,(unused),438.125868117921,443.396731974601,5.21333972174446,animal,0.540380737052601,0,2,1
53,3,tool,0,0,animals,2,floorbuffer.jpg,56,(unused),445.948966026981,450.202299433014,4.19401360727978,tool,0.560153450912821,0,1,1
54,3,tool,0,0,animals,2,sawblade.jpg,34,(unused),452.754465168692,457.925356672788,5.11720321728882,tool,0.564310826935525,0,1,1
55,3,animal,0,0,animals,2,flounder.jpg,29,(unused),460.494147101522,468.183658916142,7.64065005271513,animal,0.67753694046587,0,2,1
56,3,animal,0,0,animals,2,frog.jpg,5,(unused),470.735838122719,477.657874973967,6.85884209316396,animal,0.527641756889807,0,2,1
57,3,animal,0,0,animals,2,mahimahi.jpg,39,(unused),480.210241169451,484.84722577927,4.58326325454288,animal,0.619570379086326,0,2,1
58,3,tool,0,0,animals,2,abacus.jpg,12,(unused),487.399444436337,494.838558859436,7.39204822569814,tool,0.578640656124662,0,1,1
59,3,animal,0,0,animals,2,chinchilla.jpg,19,(unused),497.390845512469,505.063625187577,7.62520134608784,animal,0.530076782253218,0,2,1
60,3,animal,0,0,animals,2,hippo.jpg,45,(unused),507.632628584809,513.320466800595,5.64145212555968,animal,0.560445641126989,0,2,1
