"trial","phase","object","toShock","seenBefore","shockedCategory","responseSide","filename","num","name","onsetFixationCross","onsetStimulus","interTrialTime","response","reactionTime","wasShocked","buttonPressed","isResponseCorrect"
1,3,"tool",0,0,"animals",1,"saw.jpg",161,"(unused)",0.0185126967771794,4.47200150521894,4.37869625119467,"tool",0.790306931932719,0,2,1
2,3,"animal",0,0,"animals",1,"earthworm.jpg",135,"(unused)",7.04088683323971,13.7126914570163,6.61563825870244,"animal",1.12704924817081,0,1,1
3,3,"animal",0,0,"animals",1,"crab.jpg",141,"(unused)",16.2650560580332,22.4032465558812,6.08700929256499,"animal",1.2188230108477,0,1,1
4,3,"animal",0,0,"animals",1,"octopus.jpg",168,"(unused)",24.9721139227549,29.5423691089545,4.5184457915811,"animal",0.942964171350468,0,1,1
5,3,"tool",0,0,"animals",1,"ladder.jpg",156,"(unused)",32.0945832853668,37.8491564018277,5.70345076778693,"tool",1.59052092616912,0,2,1
6,3,"animal",0,0,"animals",1,"dog.jpg",128,"(unused)",40.4013667294239,46.8064168907367,6.35438316727578,"animal",1.07851502208359,0,1,1
7,3,"animal",0,0,"animals",1,"angelfish.jpg",130,"(unused)",49.3586268975978,56.2474201362529,6.83549578494617,"animal",0.704920281363229,0,1,1
8,3,"animal",0,0,"animals",1,"palmcockatoo.jpg",158,"(unused)",58.7996230869485,64.5708907686549,5.72462683032441,"animal",1.06877623168293,0,1,1
9,3,"tool",0,0,"animals",1,"wateringcan.jpg",121,"(unused)",67.1564296078705,73.9785183545391,6.762954728993,"tool",1.8225346818399,0,2,1
10,3,"tool",0,0,"animals",1,"binoculars.jpg",142,"(unused)",76.5307280406651,82.1684638969837,5.59877878622962,"tool",1.19079303754188,0,2,1
11,3,"animal",0,0,"animals",1,"springhare.jpg",167,"(unused)",84.7207072602596,91.3257512634646,6.58308580721577,"",2.50046149081027,0,NA,0
12,3,"animal",0,0,"animals",1,"stickinsect.jpg",160,"(unused)",93.8444505813586,99.1989907904335,5.30438398180479,"animal",0.685953631042139,0,1,1
13,3,"animal",0,0,"animals",1,"penguin.jpg",162,"(unused)",101.767947642305,107.305631571664,5.49089916936484,"animal",0.674639712215139,0,1,1
14,3,"animal",0,0,"animals",1,"aardvark.jpg",173,"(unused)",109.857814636805,115.879291998863,5.96997201120022,"animal",0.658315916356514,0,1,1
15,3,"tool",0,0,"animals",1,"tape.jpg",124,"(unused)",118.431454857713,122.668095533103,4.18507582059658,"tool",1.16776235702127,0,2,1
16,3,"tool",0,0,"animals",1,"wheeldolly.jpg",146,"(unused)",125.23696161704,130.290933901066,4.99877250277403,"tool",1.04113274376869,0,2,1
17,3,"animal",0,0,"animals",1,"deer.jpg",140,"(unused)",132.843122739429,138.113977795863,5.22286710272662,"animal",1.37747189640868,0,1,1
18,3,"tool",0,0,"animals",1,"glove.jpg",148,"(unused)",140.666202877255,146.937819037285,6.21703772842576,"tool",2.2360124698389,0,2,1
19,3,"animal",0,0,"animals",1,"sparrow.jpg",170,"(unused)",149.50671879837,153.910217565626,4.36041287566414,"animal",1.06881279544541,0,1,1
20,3,"tool",0,0,"animals",1,"typewriter.jpg",134,"(unused)",156.478992560886,161.516203887571,4.99751892387638,"tool",0.783102908379078,0,2,1
21,3,"animal",0,0,"animals",1,"tiger.jpg",180,"(unused)",164.085236432849,168.92234422635,4.7871380911832,"animal",1.40714852199744,0,1,1
22,3,"tool",0,0,"animals",1,"jumpercables.jpg",165,"(unused)",171.474572515093,176.762067291125,5.23645024115762,"tool",0.856751949497266,0,2,1
23,3,"tool",0,0,"animals",1,"measuringdevice.jpg",143,"(unused)",179.314256129492,186.486664215729,7.12699394526936,"tool",1.22960707584571,0,2,1
24,3,"tool",0,0,"animals",1,"faxmachine.jpg",172,"(unused)",189.055519073943,193.825941940282,4.72602796678129,"tool",0.56664382659801,0,2,1
25,3,"tool",0,0,"animals",1,"telephone.jpg",136,"(unused)",196.378160606979,201.181925135061,4.7542063951435,"tool",1.13289624293611,0,2,1
26,3,"animal",0,0,"animals",1,"duck.jpg",147,"(unused)",203.734121671063,208.254336781454,4.47842993408863,"animal",1.0046712949661,0,1,1
27,3,"tool",0,0,"animals",1,"transmissionwrench.jpg",179,"(unused)",210.806543260234,216.177295328733,5.3152660660513,"tool",1.60712344053536,0,2,1
28,3,"animal",0,0,"animals",1,"beetle.jpg",123,"(unused)",218.729664099301,226.352405926096,7.57736735362375,"animal",0.802281564381701,0,1,1
29,3,"animal",0,0,"animals",1,"giraffe.jpg",169,"(unused)",228.887905330972,234.509045408355,5.55932286256597,"animal",0.690028245495341,0,1,1
30,3,"animal",0,0,"animals",1,"fly.jpg",145,"(unused)",237.06122622835,243.933384879161,6.83105808310903,"animal",1.31804423476569,0,1,1
31,3,"tool",0,0,"animals",1,"dremel.jpg",163,"(unused)",246.502232681214,252.240108345817,5.69477287408145,"tool",1.15557796403664,0,2,1
32,3,"tool",0,0,"animals",1,"smartphone.jpg",174,"(unused)",254.792298787856,260.930502115094,6.08844191724789,"tool",0.974565526263177,0,2,1
33,3,"animal",0,0,"animals",1,"chimp.jpg",139,"(unused)",263.482717253712,271.055398477674,7.51451626748645,"animal",0.936051695698552,0,1,1
34,3,"tool",0,0,"animals",1,"chainsaw.jpg",177,"(unused)",273.60759212706,279.879260246122,6.22075265950009,"tool",1.16354309118833,0,2,1
35,3,"animal",0,0,"animals",1,"highlandcow.jpg",176,"(unused)",282.448110614052,288.753137073069,6.26021809155858,"animal",1.21192913781124,0,1,1
36,3,"animal",0,0,"animals",1,"prairiedog.jpg",150,"(unused)",291.305290309872,295.79213874121,4.43358124990024,"animal",2.45722868965095,0,1,1
37,3,"tool",0,0,"animals",1,"pencil.jpg",159,"(unused)",298.344352917622,303.331671065018,4.94696006200325,"tool",0.941002236795612,0,2,1
38,3,"animal",0,0,"animals",1,"bluejay.jpg",137,"(unused)",305.883822377418,311.905309040783,5.97398806607313,"animal",0.903672238247964,0,1,1
39,3,"tool",0,0,"animals",1,"camera.jpg",131,"(unused)",314.457480880206,320.061766345694,5.55669969881003,"tool",0.548519105039304,0,2,1
40,3,"tool",0,0,"animals",1,"beadingtool.jpg",152,"(unused)",322.630792797012,328.285285120386,5.60982995727536,"tool",0.861260518086056,0,2,1
41,3,"tool",0,0,"animals",1,"corkscrew.jpg",149,"(unused)",330.837473958753,335.941474130665,5.06490557685577,"tool",1.28943501447793,0,2,1
42,3,"tool",0,0,"animals",1,"drill.jpg",122,"(unused)",338.493703702348,343.564346817246,5.01991159556906,"tool",1.10984535612079,0,2,1
43,3,"tool",0,0,"animals",1,"caulkinggun.jpg",154,"(unused)",346.116558107045,352.054646996119,5.89540821715006,"tool",1.30987704471409,0,2,1
44,3,"tool",0,0,"animals",1,"oven.jpg",126,"(unused)",354.606790290149,359.060127711782,4.39711542420065,"tool",0.921634026548418,0,2,1
45,3,"animal",0,0,"animals",1,"otter.jpg",144,"(unused)",361.612501293374,368.117648605246,6.45257825262811,"",2.5030834975114,0,NA,0
46,3,"animal",0,0,"animals",1,"lobsterspiny.jpg",153,"(unused)",370.636458897367,378.442681536686,7.74901329018824,"animal",0.518814896262484,0,1,1
47,3,"tool",0,0,"animals",1,"electricdrill.jpg",155,"(unused)",380.994907901022,385.915469276664,4.87821796074336,"tool",1.27626468282688,0,2,1
48,3,"tool",0,0,"animals",1,"pruner.jpg",133,"(unused)",388.467664208991,393.655070815039,5.13898307692882,"tool",0.736009743592149,0,2,1
49,3,"animal",0,0,"animals",1,"waterbuffalo.jpg",171,"(unused)",396.207276010875,401.945162580461,5.68597451617677,"animal",0.693302947445773,0,1,1
50,3,"animal",0,0,"animals",1,"brown_bear.jpg",127,"(unused)",404.497356550582,410.402066572678,5.86249366796072,"animal",0.534635780008102,0,1,1
51,3,"tool",0,0,"animals",1,"hairbrush.jpg",129,"(unused)",412.970899300199,417.057453104579,4.04344487569958,"tool",0.725503114164894,0,2,1
52,3,"tool",0,0,"animals",1,"carpetblower.jpg",166,"(unused)",419.609656055272,424.046454147287,4.39356204843156,"tool",0.789930710056069,0,2,1
53,3,"animal",0,0,"animals",1,"moth.jpg",157,"(unused)",426.598635608752,432.870319764552,6.21379257645438,"animal",0.89323841561054,0,1,1
54,3,"animal",0,0,"animals",1,"shrimp.jpg",175,"(unused)",435.439174943502,440.943560831045,5.45793892474378,"animal",1.0623163127857,0,1,1
55,3,"tool",0,0,"animals",1,"magnet.jpg",178,"(unused)",443.495733953408,447.78244709882,4.24350572679008,"tool",1.5326946932073,0,2,1
56,3,"animal",0,0,"animals",1,"lemur.jpg",125,"(unused)",450.351271166499,457.490309687066,7.09163210412704,"animal",0.880114911236888,0,1,1
57,3,"animal",0,0,"animals",1,"elephantafrican.jpg",151,"(unused)",460.042477998406,465.196403102349,5.1109637619575,"animal",1.3353828354193,0,1,1
58,3,"tool",0,0,"animals",1,"lantern.jpg",138,"(unused)",467.765483116371,474.504273584927,6.68337002630855,"tool",0.761791297791206,0,2,1
59,3,"animal",0,0,"animals",1,"mink.jpg",132,"(unused)",477.056340796411,482.277126269437,5.1586545582086,"animal",1.40931957562134,0,1,1
60,3,"tool",0,0,"animals",1,"ruler.jpg",164,"(unused)",484.82935391671,490.400394261615,5.53024931000483,"tool",1.3422892171111,0,2,1
