"trial","phase","object","toShock","seenBefore","shockedCategory","responseSide","filename","num","name","onsetFixationCross","onsetStimulus","interTrialTime","response","reactionTime","wasShocked","buttonPressed","isResponseCorrect"
1,3,"animal",0,0,"animals",1,"gerbil.jpg",90,"(unused)",0.018435400736962,6.97395269619847,6.86888904370437,"animal",0.700490291754249,0,1,1
2,3,"animal",0,0,"animals",1,"kangaroo.jpg",115,"(unused)",9.542815572785,13.6126645484064,4.02589855523626,"animal",0.611027743791965,0,1,1
3,3,"animal",0,0,"animals",1,"dragonfly.jpg",68,"(unused)",16.1648732723279,23.4371895963486,7.23157251196661,"animal",0.673944037470392,0,1,1
4,3,"tool",0,0,"animals",1,"tubeflaring.jpg",109,"(unused)",25.9895448960569,32.1111017682642,6.08044508250241,"tool",0.608382002717008,0,2,1
5,3,"animal",0,0,"animals",1,"gecko.jpg",120,"(unused)",34.6632662307884,38.8665158512795,4.1454939487118,"animal",0.634118401718297,0,1,1
6,3,"tool",0,0,"animals",1,"wrench.jpg",118,"(unused)",41.4354406296752,49.2748615623013,7.80258068126493,"tool",0.556302695273189,0,2,1
7,3,"animal",0,0,"animals",1,"orangutan.jpg",73,"(unused)",51.8271732420826,56.5975977120925,4.73420231893136,"animal",0.789754304896633,0,1,1
8,3,"animal",0,0,"animals",1,"prayingmantis.jpg",96,"(unused)",59.1498401131639,64.5708096237968,5.36723869525694,"animal",0.525810120442657,0,1,1
9,3,"animal",0,0,"animals",1,"rooster.jpg",106,"(unused)",67.1229785766072,74.3287260794468,7.13839899491418,"animal",0.653264022036637,0,1,1
10,3,"tool",0,0,"animals",1,"clippers.jpg",61,"(unused)",76.880920370304,83.6029450020924,6.67440261550575,"tool",0.497459412372336,0,2,1
11,3,"animal",0,0,"animals",1,"stinkbug.jpg",62,"(unused)",86.1551553296877,90.2249853819576,4.03085671771454,"animal",0.579593812427447,0,1,1
12,3,"animal",0,0,"animals",1,"crow.jpg",75,"(unused)",92.7771738995889,97.1806152553218,4.36309247015411,"animal",0.506234394804778,0,1,1
13,3,"tool",0,0,"animals",1,"thermometer.jpg",79,"(unused)",99.7328480343504,107.689130602961,7.90192311376045,"tool",0.689144940916776,0,2,1
14,3,"tool",0,0,"animals",1,"ducttape.jpg",83,"(unused)",110.241319762063,117.697335318981,7.41005340838476,"tool",0.562408843726189,0,2,1
15,3,"animal",0,0,"animals",1,"shark.jpg",110,"(unused)",120.24952030853,126.337683239225,6.03037302375566,"animal",0.657268395576466,0,1,1
16,3,"tool",0,0,"animals",1,"stopwatch.jpg",111,"(unused)",128.889874322735,135.26159821757,6.30859593435506,"tool",0.594761038722936,0,2,1
17,3,"tool",0,0,"animals",1,"level.jpg",100,"(unused)",137.830458528279,142.250625239795,4.36167291259229,"tool",0.814899910461463,0,2,1
18,3,"animal",0,0,"animals",1,"hedgehog.jpg",108,"(unused)",144.802783608358,152.792505021349,7.93917690745708,"animal",0.546445874479105,0,1,1
19,3,"animal",0,0,"animals",1,"ram.jpg",97,"(unused)",155.344724650253,161.416093267189,6.0288802472158,"animal",0.706259347969535,0,1,1
20,3,"tool",0,0,"animals",1,"crutches.jpg",119,"(unused)",163.968352667204,168.705441248693,4.69473261475476,"tool",0.592199330156291,0,2,1
21,3,"tool",0,0,"animals",1,"mixer.jpg",116,"(unused)",171.257609880769,177.97967973616,6.67510563749032,"tool",0.633312395254507,0,2,1
22,3,"tool",0,0,"animals",1,"lighterbic.jpg",69,"(unused)",180.548531707765,187.087062376903,6.48920649768454,"tool",0.531293081248805,0,2,1
23,3,"animal",0,0,"animals",1,"caiman.jpg",64,"(unused)",189.655940007289,196.294538640125,6.57981842571267,"animal",0.650080088026698,0,1,1
24,3,"animal",0,0,"animals",1,"starfish.jpg",105,"(unused)",198.863419157125,204.467858896033,5.56104725999534,"animal",0.647135422150313,0,1,1
25,3,"tool",0,0,"animals",1,"generator.jpg",66,"(unused)",207.020008604758,211.756992947449,4.69657003207746,"tool",0.605265423006131,0,2,1
26,3,"tool",0,0,"animals",1,"burnisher.jpg",95,"(unused)",214.30927030861,219.880217961168,5.51261446797146,"tool",0.623499515123513,0,2,1
27,3,"tool",0,0,"animals",1,"curlingiron.jpg",99,"(unused)",222.432525471398,228.937746231532,6.44955723614112,"tool",0.902090694084109,0,2,1
28,3,"animal",0,0,"animals",1,"goldfish.jpg",98,"(unused)",231.506658822008,236.52725255979,4.96667106422698,"animal",0.674863584041304,0,1,1
29,3,"animal",0,0,"animals",1,"ant.jpg",112,"(unused)",239.079444605503,245.034256284483,5.90081670221176,"animal",0.724180402956335,0,1,1
30,3,"tool",0,0,"animals",1,"paintgun.jpg",94,"(unused)",247.586390918674,253.657830417994,6.02284719290929,"tool",0.590996574787823,0,2,1
31,3,"animal",0,0,"animals",1,"baldeagle.jpg",71,"(unused)",256.210032085751,263.882755935363,7.62285598284336,"animal",0.583450327239916,0,1,1
32,3,"tool",0,0,"animals",1,"electricsander.jpg",103,"(unused)",266.451702844458,274.241255935844,7.72952230305739,"tool",0.525402466557352,0,2,1
33,3,"tool",0,0,"animals",1,"pliers2.jpg",70,"(unused)",276.793456641396,284.29944267468,7.45502220747769,"tool",0.59648274294068,0,2,1
34,3,"tool",0,0,"animals",1,"stove.jpg",101,"(unused)",286.851631192311,291.455254019775,4.53474194785336,"tool",0.561044438036333,0,2,1
35,3,"animal",0,0,"animals",1,"pelican.jpg",92,"(unused)",294.007445744754,299.71194607046,5.65765556434158,"animal",0.653620037625842,0,1,1
36,3,"animal",0,0,"animals",1,"dolphin.jpg",86,"(unused)",302.264165378629,309.002845125287,6.69291590524946,"animal",0.499982632767569,0,1,1
37,3,"animal",0,0,"animals",1,"turtle.jpg",78,"(unused)",311.571748414453,318.160279388291,6.53101134008406,"animal",0.615916703812218,0,1,1
38,3,"tool",0,0,"animals",1,"carjack.jpg",88,"(unused)",320.712487791478,328.485383843586,7.72244642006423,"tool",0.487227331904251,0,2,1
39,3,"tool",0,0,"animals",1,"avocadoslicer.jpg",76,"(unused)",331.037544136558,337.542717427947,6.45710206222814,"tool",0.562281512025038,0,2,1
40,3,"animal",0,0,"animals",1,"wasp.jpg",104,"(unused)",340.094919416439,345.048823416033,4.90398460330774,"animal",0.595458957571282,0,1,1
41,3,"tool",0,0,"animals",1,"hammer.jpg",63,"(unused)",347.617689499967,351.770921816817,4.10021182951237,"tool",0.553532509108663,0,2,1
42,3,"animal",0,0,"animals",1,"catfish.jpg",87,"(unused)",354.306469652644,359.143660195715,4.7908849362581,"animal",0.583157175665292,0,1,1
43,3,"animal",0,0,"animals",1,"seal.jpg",107,"(unused)",361.712497734256,368.317749894323,6.5586676567919,"animal",0.615301213799285,0,1,1
44,3,"tool",0,0,"animals",1,"airhorn.jpg",89,"(unused)",370.886611487971,378.00894453831,7.06193992816495,"tool",0.645559010780744,0,2,1
45,3,"tool",0,0,"animals",1,"magnifyingglass.jpg",74,"(unused)",380.561150054883,388.367372373468,7.74788310218042,"tool",0.598567198177989,0,2,1
46,3,"animal",0,0,"animals",1,"flea.jpg",77,"(unused)",390.936247437977,398.175357129587,7.19040272819894,"animal",0.678944613189742,0,1,1
47,3,"tool",0,0,"animals",1,"keys.jpg",72,"(unused)",400.727532817828,405.347944506557,4.56898872556433,"tool",0.528613983757168,0,2,1
48,3,"animal",0,0,"animals",1,"malaysianjunglenymph.jpg",85,"(unused)",407.900031992737,412.687149745054,4.73823086961763,"animal",0.782699423008125,0,1,1
49,3,"tool",0,0,"animals",1,"padlock.jpg",84,"(unused)",415.256017111927,420.276649337881,4.96293655274236,"tool",0.702467621578762,0,2,1
50,3,"animal",0,0,"animals",1,"manatee.jpg",65,"(unused)",422.828842345799,429.701000996609,6.82674231220899,"animal",0.629422844761393,0,1,1
51,3,"animal",0,0,"animals",1,"cow.jpg",80,"(unused)",432.253168345746,437.190421720758,4.88075462574082,"animal",0.560274033131464,0,1,1
52,3,"tool",0,0,"animals",1,"gardenhose.jpg",114,"(unused)",439.742596767528,447.315262275488,7.52992389297984,"tool",0.580871619729805,0,2,1
53,3,"animal",0,0,"animals",1,"macaw.jpg",81,"(unused)",449.884120341053,455.421887982186,5.48648306864964,"animal",0.624492830690542,0,1,1
54,3,"tool",0,0,"animals",1,"mallet.jpg",82,"(unused)",457.974087084065,462.043944719525,4.02497741895957,"tool",0.658761415907065,0,2,1
55,3,"tool",0,0,"animals",1,"eraser.jpg",117,"(unused)",464.596096673393,471.418115820617,6.76205751767761,"tool",0.817948494401207,0,2,1
56,3,"animal",0,0,"animals",1,"cheetah.jpg",67,"(unused)",473.987055352813,481.676552668423,7.63378578020468,"animal",0.505942526168838,0,1,1
57,3,"animal",0,0,"animals",1,"baboon.jpg",113,"(unused)",484.228753373975,489.249405485484,4.97517742084024,"animal",0.648253182806002,0,1,1
58,3,"tool",0,0,"animals",1,"hoe.jpg",91,"(unused)",491.818237892268,499.591146453032,7.72308235422751,"tool",0.6100013925452,0,2,1
59,3,"tool",0,0,"animals",1,"reflexhammer.jpg",93,"(unused)",502.143316368047,509.499183456844,7.30105684441479,"tool",0.640304733862649,0,2,1
60,3,"tool",0,0,"animals",1,"shoehorn.jpg",102,"(unused)",512.051391218561,519.123625498628,7.01333094795718,"tool",0.650157064370433,0,2,1
