"trial","phase","object","toShock","seenBefore","shockedCategory","responseSide","filename","num","name","onsetFixationCross","onsetStimulus","interTrialTime","response","reactionTime","wasShocked","buttonPressed","isResponseCorrect"
1,1,"animal",0,0,"animals",1,"angelfish.jpg",130,"(unused)",0.0261632090587227,4.77969874855535,4.58602801910578,"animal",0.95083978756611,0,1,1
2,1,"tool",0,0,"animals",1,"glove.jpg",148,"(unused)",7.38213453665367,14.6045596057961,7.15328746981694,"tool",0.73136387458635,0,2,1
3,1,"animal",0,0,"animals",1,"mink.jpg",132,"(unused)",17.1734199165044,23.7286393776635,6.4973988405386,"animal",0.708676059524805,0,1,1
4,1,"animal",0,0,"animals",1,"moth.jpg",157,"(unused)",26.28080736827,33.4865930385463,7.15284790342319,"animal",0.792021233316518,0,1,1
5,1,"tool",0,0,"animals",1,"corkscrew.jpg",149,"(unused)",36.0387244653894,41.7097477792786,5.62729212600359,"tool",0.560190937929747,0,2,1
6,1,"tool",0,0,"animals",1,"typewriter.jpg",134,"(unused)",44.2620931362103,49.0492134544047,4.72902105358437,"tool",0.635950093062547,0,2,1
7,1,"animal",0,0,"animals",1,"beetle.jpg",123,"(unused)",51.6013868975019,58.8905847751357,7.24140998679798,"animal",0.528983124574097,0,1,1
8,1,"tool",0,0,"animals",1,"beadingtool.jpg",152,"(unused)",61.4594415577621,69.3157283279984,7.81530848584986,"tool",0.621163578933192,0,2,1
9,1,"animal",0,0,"animals",1,"fly.jpg",145,"(unused)",71.8678959978697,77.7059358465986,5.77955278750032,"animal",0.655273721175945,0,1,1
10,1,"tool",0,0,"animals",1,"smartphone.jpg",174,"(unused)",80.2580521989075,84.8616586688977,4.54257559544837,"tool",0.687881221045245,0,2,1
11,1,"animal",0,0,"animals",1,"crab.jpg",141,"(unused)",87.4138494316721,93.7355524947857,6.26009934830546,"animal",0.693290733589038,0,1,1
12,1,"tool",0,0,"animals",1,"saw.jpg",161,"(unused)",96.2876848838328,102.02564297727,5.68738109683559,"tool",0.622483402490616,0,2,1
13,1,"tool",0,0,"animals",1,"chainsaw.jpg",177,"(unused)",104.577824438737,110.682683217616,6.05839994480482,"tool",0.52476097212957,0,2,1
14,1,"animal",0,0,"animals",1,"chimp.jpg",139,"(unused)",113.234857622917,120.407253521233,7.12294005440875,"animal",0.621568346206459,0,1,1
15,1,"animal",0,0,"animals",1,"penguin.jpg",162,"(unused)",122.959494872186,129.181061743012,6.17542419902033,"animal",0.48017017997563,0,1,1
16,1,"tool",0,0,"animals",1,"camera.jpg",131,"(unused)",131.733219790841,137.988191740982,6.20571116759479,"tool",0.510280759700436,0,2,1
17,1,"tool",0,0,"animals",1,"measuringdevice.jpg",143,"(unused)",140.557064239611,146.912151942929,6.30634788994637,"tool",0.58975915516703,0,2,1
18,1,"animal",0,0,"animals",1,"bluejay.jpg",137,"(unused)",149.464311273697,153.851093345008,4.32808280785722,"animal",0.632985220896444,0,1,1
19,1,"animal",0,0,"animals",1,"deer.jpg",140,"(unused)",156.403268712515,162.324663998547,5.86105091794514,"animal",0.46680387938477,0,1,1
20,1,"tool",0,0,"animals",1,"lantern.jpg",138,"(unused)",164.893453106138,168.980062397632,4.04562421048114,"tool",0.622781365087121,0,2,1
21,1,"tool",0,0,"animals",1,"hairbrush.jpg",129,"(unused)",171.532250273794,177.053313727638,5.48014730983164,"tool",0.605730784252955,0,2,1
22,1,"animal",0,0,"animals",1,"dog.jpg",128,"(unused)",179.605451569177,184.609436377896,4.95131531064147,"animal",0.669916225395809,0,1,1
23,1,"tool",0,0,"animals",1,"caulkinggun.jpg",154,"(unused)",187.161616877158,192.682673595573,5.47759520527695,"tool",0.558984975213662,0,2,1
24,1,"tool",0,0,"animals",1,"jumpercables.jpg",165,"(unused)",195.234856019244,200.805914966765,5.52803336857219,"tool",0.634023118595451,0,2,1
25,1,"animal",0,0,"animals",1,"waterbuffalo.jpg",171,"(unused)",203.374813444911,208.145232783164,4.71863406540503,"animal",0.571988524785411,0,1,1
26,1,"tool",0,0,"animals",1,"wateringcan.jpg",121,"(unused)",210.697403981118,215.084225823541,4.33577345691782,"tool",0.639172194510593,0,2,1
27,1,"animal",0,0,"animals",1,"otter.jpg",144,"(unused)",217.636379060348,223.240865305798,5.56030306921225,"animal",0.53092324916679,0,1,1
28,1,"tool",0,0,"animals",1,"drill.jpg",122,"(unused)",225.809739087367,230.496744935323,4.63261785791985,"tool",0.520286722159653,0,2,1
29,1,"tool",0,0,"animals",1,"electricdrill.jpg",155,"(unused)",233.048923189443,241.072021545003,7.96922190340703,"tool",0.61143056175888,0,2,1
30,1,"animal",0,0,"animals",1,"shrimp.jpg",175,"(unused)",243.624194346631,251.080243259966,7.40096557115776,"animal",0.54050135144962,0,1,1
31,1,"animal",0,0,"animals",1,"earthworm.jpg",135,"(unused)",253.632325293655,258.78640274661,5.10915424816312,"animal",0.693771194267356,0,1,1
32,1,"tool",0,0,"animals",1,"carpetblower.jpg",166,"(unused)",261.338596075263,267.460116383707,6.06794493168166,"tool",0.783272871870395,0,2,1
33,1,"animal",0,0,"animals",1,"elephantafrican.jpg",151,"(unused)",270.012321579547,274.182272516749,4.11861027987468,"animal",0.675452748906991,0,1,1
34,1,"animal",0,0,"animals",1,"sparrow.jpg",170,"(unused)",276.734417735187,283.089512815405,6.30550505108998,"animal",0.578509062554986,0,1,1
35,1,"animal",0,0,"animals",1,"lobsterspiny.jpg",153,"(unused)",285.658366069948,291.279497166755,5.57460295862023,"animal",0.596848676409536,0,1,1
36,1,"animal",0,0,"animals",1,"stickinsect.jpg",160,"(unused)",293.831646234011,301.788037531707,7.91216201060515,"animal",0.638625983206111,0,1,1
37,1,"animal",0,0,"animals",1,"springhare.jpg",167,"(unused)",304.340195579535,310.595192546988,6.21023963479722,"animal",0.613763586438836,0,1,1
38,1,"tool",0,0,"animals",1,"dremel.jpg",163,"(unused)",313.164039707572,320.68672896594,7.46748130174587,"tool",0.579739080377749,0,2,1
39,1,"tool",0,0,"animals",1,"magnet.jpg",178,"(unused)",323.255600502365,327.675726480566,4.37688960246665,"tool",0.601012455126693,0,2,1
40,1,"animal",0,0,"animals",1,"highlandcow.jpg",176,"(unused)",330.244597696257,337.100082308846,6.81095155272644,"animal",0.52698302258068,0,1,1
41,1,"animal",0,0,"animals",1,"palmcockatoo.jpg",158,"(unused)",339.652259280026,345.55694364334,5.85813232663542,"animal",0.694389570893691,0,1,1
42,1,"tool",0,0,"animals",1,"pruner.jpg",133,"(unused)",348.109164555182,353.596826369881,5.43187127209727,"tool",0.665800877628044,0,2,1
43,1,"animal",0,0,"animals",1,"brown_bear.jpg",127,"(unused)",356.165661663277,361.736788927304,5.51633329886235,"animal",0.570219672556959,0,1,1
44,1,"tool",0,0,"animals",1,"wheeldolly.jpg",146,"(unused)",364.288981935222,370.410532113497,6.05629213358361,"tool",0.574730444792294,0,2,1
45,1,"tool",0,0,"animals",1,"tape.jpg",124,"(unused)",372.962678573376,380.051671886377,7.0307897507609,"tool",0.753955789953579,0,2,1
46,1,"tool",0,0,"animals",1,"ladder.jpg",156,"(unused)",382.603841801392,389.025626619797,6.37997845328203,"tool",0.526428472171574,0,2,1
47,1,"animal",0,0,"animals",1,"duck.jpg",147,"(unused)",391.577839834005,399.584307129804,7.95475376049788,"animal",0.583152019010868,0,1,1
48,1,"tool",0,0,"animals",1,"faxmachine.jpg",172,"(unused)",402.153099444742,409.825925608745,7.62702062286757,"tool",0.600825466758579,0,2,1
49,1,"tool",0,0,"animals",1,"pencil.jpg",159,"(unused)",412.394732998217,419.533770877314,7.08278290910246,"tool",0.776417166271585,0,2,1
50,1,"tool",0,0,"animals",1,"transmissionwrench.jpg",179,"(unused)",422.085970941396,428.140814020309,6.00753668024382,"tool",0.628697959294641,0,2,1
51,1,"animal",0,0,"animals",1,"octopus.jpg",168,"(unused)",430.692948975235,438.215648497115,7.47673051751456,"animal",0.855254733678066,0,1,1
52,1,"tool",0,0,"animals",1,"telephone.jpg",136,"(unused)",440.767848240464,445.471504071534,4.65081867218114,"tool",0.625701334386576,0,2,1
53,1,"tool",0,0,"animals",1,"ruler.jpg",164,"(unused)",448.023715040598,453.811647138483,5.74446920070924,"tool",0.619839585824138,0,2,1
54,1,"animal",0,0,"animals",1,"prairiedog.jpg",150,"(unused)",456.363845919627,461.868171509033,5.44022496481037,"animal",0.634537897893097,0,1,1
55,1,"tool",0,0,"animals",1,"oven.jpg",126,"(unused)",464.437035347824,469.99144078415,5.5015297724561,"tool",0.555665049662821,0,2,1
56,1,"animal",0,0,"animals",1,"lemur.jpg",125,"(unused)",472.543636037211,479.615927408067,7.01661626885502,"animal",0.627552936183747,0,1,1
57,1,"tool",0,0,"animals",1,"binoculars.jpg",142,"(unused)",482.168150565053,486.288041861626,4.07264415508999,"tool",0.64171401752219,0,2,1
58,1,"animal",0,0,"animals",1,"tiger.jpg",180,"(unused)",488.840229096319,493.093600900718,4.21313216735968,"animal",0.616296108141796,0,1,1
59,1,"animal",0,0,"animals",1,"giraffe.jpg",169,"(unused)",495.645765042507,502.751403848334,7.0441091296006,"animal",0.549834733107218,0,1,1
60,1,"animal",0,0,"animals",1,"aardvark.jpg",173,"(unused)",505.320288534885,510.174164983363,4.79847302138716,"animal",0.5533634569897,0,1,1
