trial,phase,object,toShock,seenBefore,shockedCategory,responseSide,filename,num,name,onsetFixationCross,onsetStimulus,interTrialTime,response,reactionTime,wasShocked,buttonPressed,isResponseCorrect
1,3,animal,0,0,animals,1,ant.jpg,112,(unused),0.018560980739494,8.00832463550796,7.92291492108364,animal,1.34660888838516,0,1,1
2,3,tool,0,0,animals,1,fishingpole.jpg,120,(unused),10.577246687255,15.7313833061398,5.10280852110402,tool,0.550893816405733,0,2,1
3,3,animal,0,0,animals,1,gerbil.jpg,90,(unused),18.2835747147292,25.8396749542571,7.5076549487131,animal,0.604147508418464,0,1,1
4,3,tool,0,0,animals,1,level.jpg,100,(unused),28.3918840034239,33.3124626014924,4.8765184962891,tool,0.621654657661566,0,2,1
5,3,tool,0,0,animals,1,ducttape.jpg,83,(unused),35.864660424837,43.8878388589437,7.97431006789585,tool,0.914821788972404,0,2,1
6,3,tool,0,0,animals,1,mixer.jpg,116,(unused),46.4400645864735,54.4298539002612,7.94157590950782,tool,0.622105294198263,0,2,1
7,3,animal,0,0,animals,1,wasp.jpg,104,(unused),56.9820793070521,63.6874335747252,6.66010288869071,animal,0.459028431321713,0,1,1
8,3,animal,0,0,animals,1,flea.jpg,77,(unused),66.2396676414355,71.1100681017597,4.81166197046992,animal,0.766827618699608,0,1,1
9,3,animal,0,0,animals,1,macaw.jpg,81,(unused),73.6791306366395,81.5187771579822,7.79502588776616,animal,0.66960302658299,0,1,1
10,3,tool,0,0,animals,1,burnisher.jpg,95,(unused),84.0710192431361,91.910632087016,7.78918195669233,tool,0.888182594560931,0,2,1
11,3,tool,0,0,animals,1,carjack.jpg,88,(unused),94.4628700025787,101.16827719198,6.66959674296534,tool,0.699960212969017,0,2,1
12,3,animal,0,0,animals,1,seaslug.jpg,119,(unused),103.737193791185,109.95882774474,6.17477775120606,animal,1.23084565442514,0,1,1
13,3,tool,0,0,animals,1,thermometer.jpg,79,(unused),112.527724778942,117.148037357121,4.57259444940226,tool,0.886024350254957,0,2,1
14,3,animal,0,0,animals,1,shark.jpg,110,(unused),119.700284894818,127.423114879435,7.68511363802862,animal,0.701358950287613,0,1,1
15,3,animal,0,0,animals,1,baboon.jpg,113,(unused),129.992108455699,136.113568954281,6.08066818812421,animal,0.603374209706089,0,1,1
16,3,tool,0,0,animals,1,hammer.jpg,63,(unused),138.665909505924,145.838367306458,7.12008755737885,tool,0.59804290685679,0,2,1
17,3,animal,0,0,animals,1,prayingmantis.jpg,96,(unused),148.390556790622,153.36114610133,4.92561235617964,animal,1.23257314793773,0,1,1
18,3,animal,0,0,animals,1,turtle.jpg,78,(unused),155.913426995752,162.135099117098,6.17432145977632,animal,0.618096072348635,0,1,1
19,3,tool,0,0,animals,1,tubeflaring.jpg,109,(unused),164.703986849907,169.324158944954,4.58381179199933,tool,0.831366147642257,0,2,1
20,3,animal,0,0,animals,1,cheetah.jpg,67,(unused),171.876477365691,179.415958899537,7.49368072207957,animal,0.628951120694182,0,1,1
21,3,tool,0,0,animals,1,electricsander.jpg,103,(unused),181.98486010333,186.521791772077,4.48715895687162,tool,0.65553290304706,0,2,1
22,3,tool,0,0,animals,1,hoe.jpg,91,(unused),189.074045724528,193.894531372796,4.7722163454927,tool,0.514136308256639,0,2,1
23,3,animal,0,0,animals,1,dolphin.jpg,86,(unused),196.463421992245,203.168847784435,6.65451149284334,animal,0.754146610352109,0,1,1
24,3,animal,0,0,animals,1,orangutan.jpg,73,(unused),205.721019307284,210.308012044497,4.53516420346575,animal,0.682362294943232,0,1,1
25,3,animal,0,0,animals,1,cow.jpg,80,(unused),212.860256054078,220.566475351459,7.6575638159925,animal,0.850387499796852,0,1,1
26,3,tool,0,0,animals,1,reflexhammer.jpg,93,(unused),223.135364046479,228.456269861197,5.26429146285357,tool,0.661959525308703,0,2,1
27,3,animal,0,0,animals,1,rooster.jpg,106,(unused),231.008497192417,236.262726119625,5.21538619691691,animal,0.62293728791883,0,1,1
28,3,tool,0,0,animals,1,stopwatch.jpg,111,(unused),238.814927471087,246.671192056636,7.8161806532931,tool,1.49895290399581,0,2,1
29,3,animal,0,0,animals,1,pelican.jpg,92,(unused),249.240150672485,253.476814396918,4.19652056935622,animal,1.19755018952856,0,1,1
30,3,animal,0,0,animals,1,crow.jpg,75,(unused),256.029090480273,262.717781780455,6.63207401283458,animal,1.15016086650394,0,1,1
31,3,animal,0,0,animals,1,manatee.jpg,65,(unused),265.286691964904,270.340727294808,5.00983566330884,animal,0.742543601576472,0,1,1
32,3,tool,0,0,animals,1,avocadoslicer.jpg,76,(unused),272.892971304389,277.146329107874,4.19659785541499,tool,0.808199260096444,0,2,1
33,3,animal,0,0,animals,1,baldeagle.jpg,71,(unused),279.698554514667,284.919252876211,5.1827564664229,animal,0.549741405675377,0,1,1
34,3,tool,0,0,animals,1,eraser.jpg,117,(unused),287.488278205512,291.874937824501,4.35134278456982,tool,0.729354544633679,0,2,1
35,3,tool,0,0,animals,1,magnifyingglass.jpg,74,(unused),294.444006774136,301.182743747371,6.67811347768601,tool,0.634853336736342,0,2,1
36,3,tool,0,0,animals,1,generator.jpg,66,(unused),303.751668365021,309.873070810068,6.07212214005215,tool,0.959073976082436,0,2,1
37,3,animal,0,0,animals,1,starfish.jpg,105,(unused),312.425446963602,317.379410191661,4.91342394918282,animal,0.928009562961961,0,1,1
38,3,tool,0,0,animals,1,shoehorn.jpg,102,(unused),319.948315565043,324.785487915398,4.79235961564001,tool,0.706389721866799,0,2,1
39,3,animal,0,0,animals,1,malaysianjunglenymph.jpg,85,(unused),327.33771877473,335.310809839875,7.92311260710244,animal,0.524510249981176,0,1,1
40,3,tool,0,0,animals,1,pliers2.jpg,70,(unused),337.863062188639,345.002109700163,7.09151999631848,tool,0.680679704713839,0,2,1
41,3,tool,0,0,animals,1,airhorn.jpg,89,(unused),347.57099454633,355.444047187091,7.82351699001729,tool,0.849171582995041,0,2,1
42,3,tool,0,0,animals,1,clippers.jpg,61,(unused),358.01294614572,365.919306439413,7.85330743230204,tool,0.556461182239218,0,2,1
43,3,animal,0,0,animals,1,seal.jpg,107,(unused),368.471541468338,376.211117170786,7.69165583742224,animal,1.00716058297257,0,1,1
44,3,animal,0,0,animals,1,hedgehog.jpg,108,(unused),378.763277467815,384.584653163334,5.76708113011639,animal,0.659914822163046,0,1,1
45,3,tool,0,0,animals,1,lighterbic.jpg,69,(unused),387.136891078899,393.708887722698,6.52598557305471,tool,0.606179702790541,0,2,1
46,3,animal,0,0,animals,1,caiman.jpg,64,(unused),396.261079772765,400.664566576972,4.35728172813257,animal,0.581836990657393,0,1,1
47,3,tool,0,0,animals,1,padlock.jpg,84,(unused),403.233394652558,408.454143369929,5.16390123676943,tool,1.00563868235622,0,2,1
48,3,animal,0,0,animals,1,stinkbug.jpg,62,(unused),411.006544861742,416.611009146312,5.55007337300711,animal,0.543069098301203,0,1,1
49,3,tool,0,0,animals,1,keys.jpg,72,(unused),419.163206007444,423.249785313701,4.03735612477219,tool,0.880652313711835,0,2,1
50,3,tool,0,0,animals,1,gardenhose.jpg,114,(unused),425.802020984102,433.007836151917,7.14803899861409,tool,0.618015887910587,0,2,1
51,3,tool,0,0,animals,1,curlingiron.jpg,99,(unused),435.57671297964,442.115288429348,6.49612409060491,tool,0.495982872449531,0,2,1
52,3,animal,0,0,animals,1,catfish.jpg,87,(unused),444.667522496058,450.63897170467,5.92300694561248,animal,0.843805319729654,0,1,1
53,3,animal,0,0,animals,1,ram.jpg,97,(unused),453.191181074575,460.213540344474,6.95899069372948,animal,0.574585110171029,0,1,1
54,3,tool,0,0,animals,1,stove.jpg,101,(unused),462.765754525442,467.919861315719,5.11011673346476,tool,0.736715155215279,0,2,1
55,3,tool,0,0,animals,1,paintgun.jpg,94,(unused),470.472079024803,477.677885853438,7.15559180359972,tool,0.46213221051039,0,2,1
56,3,tool,0,0,animals,1,mallet.jpg,82,(unused),480.230067960634,484.883694927237,4.60988708933199,tool,0.660702554072486,0,2,1
57,3,animal,0,0,animals,1,goldfish.jpg,98,(unused),487.436060496426,492.523425930904,5.03533174891536,animal,0.576276039580989,0,1,1
58,3,animal,0,0,animals,1,dragonfly.jpg,68,(unused),495.075651337695,500.313084191248,5.2008329855877,animal,0.89102368953354,0,1,1
59,3,animal,0,0,animals,1,kangaroo.jpg,115,(unused),502.865383046983,510.154583293823,7.23901687287344,animal,0.471881034365651,0,1,1
60,3,tool,0,0,animals,1,wrench.jpg,118,(unused),512.706804210286,518.261272536151,5.51200119849165,tool,0.557576708126362,0,2,1
