trial,phase,object,toShock,seenBefore,shockedCategory,responseSide,filename,num,name,onsetFixationCross,onsetStimulus,interTrialTime,response,reactionTime,wasShocked,buttonPressed,isResponseCorrect
1,2,tool,0,0,animals,1,telephone.jpg,138,(unused),0.0173885719341342,8.70748957801698,8.54412872272311,1,2.21661152813613,0,1,0
2,2,tool,0,0,animals,1,hairbrush.jpg,131,(unused),13.0945777854649,20.6674268036295,7.51956339437067,0,0.712088834159658,0,2,1
3,2,animal,0,0,animals,1,moth.jpg,159,(unused),25.021088578862,33.7280833752448,8.65824648533707,1,0.73197701287063,0,1,0
4,2,animal,1,0,animals,1,otter.jpg,146,(unused),38.0984384809744,46.4384731589162,8.29919573243414,1,0.935042797045753,1,1,1
5,2,animal,0,0,animals,1,brown_bear.jpg,129,(unused),51.0089724674108,58.5816980023337,7.52929445057691,1,1.38331326190382,0,1,0
6,2,tool,0,0,animals,1,tape.jpg,126,(unused),62.9520611264525,69.2904289410108,6.29734137754393,0,1.38403138911599,0,2,1
7,2,tool,0,0,animals,1,smartphone.jpg,176,(unused),73.6607747454036,82.1342787699941,8.43582194580666,0,1.22368791968256,0,2,1
8,2,animal,1,0,animals,1,angelfish.jpg,132,(unused),86.4879126412234,93.4434625233189,6.91020191560632,1,1.1210505742456,1,1,1
9,2,animal,1,0,animals,1,dog.jpg,130,(unused),97.9973368180217,104.819491122682,6.77946456757183,0,1.27239997344077,1,2,0
10,2,tool,0,0,animals,1,beadingtool.jpg,154,(unused),109.373260536813,116.845921026536,7.42899210915535,0,1.10846137764747,0,2,1
11,2,animal,1,0,animals,1,bluejay.jpg,139,(unused),121.19953661583,128.121738325222,6.87167323577922,1,1.13117844515,1,1,1
12,2,tool,0,0,animals,1,faxmachine.jpg,174,(unused),132.675617751698,142.683659236933,9.95615448301533,0,0.888840500065271,0,2,1
13,2,animal,1,0,animals,1,aardvark.jpg,175,(unused),147.037337048951,153.308996009408,6.22164087346069,1,2.00590229171939,1,1,1
14,2,tool,0,0,animals,1,oven.jpg,128,(unused),157.862838872014,164.668252377294,6.75830190977513,0,0.756065866924473,0,2,1
15,2,animal,1,0,animals,1,penguin.jpg,164,(unused),169.021918963565,178.095862331906,9.02498615950332,1,0.963073492734111,1,1,1
16,2,animal,0,0,animals,1,duck.jpg,149,(unused),182.666393393232,190.255785637586,7.53671070722292,1,1.11465318015689,0,1,0
17,2,tool,0,0,animals,1,binoculars.jpg,144,(unused),194.609475637561,203.416611493503,8.75686776647611,0,0.651254574971972,0,2,1
18,2,animal,0,0,animals,1,elephantafrican.jpg,153,(unused),207.753501999468,217.761580369312,9.95310802469112,0,1.12103165083681,0,2,1
19,2,animal,1,0,animals,1,palmcockatoo.jpg,160,(unused),222.115253049556,228.703829983788,6.54283929006749,1,0.969157848783652,1,1,1
20,2,animal,1,0,animals,1,lobsterspiny.jpg,155,(unused),233.257675412275,239.395941040442,6.09673018360911,1,1.64450373015643,1,1,1
21,2,tool,0,0,animals,1,corkscrew.jpg,151,(unused),243.966414369348,253.107098344623,9.09689842243041,0,0.653789990607038,0,2,1
22,2,tool,0,0,animals,1,wheeldolly.jpg,148,(unused),257.460786099447,267.201926096728,9.68707948296911,0,0.724571867242048,0,2,1
23,2,animal,0,0,animals,1,sparrow.jpg,172,(unused),271.55559236226,280.396000055811,8.80146815715744,1,0.993988564488973,0,1,0
24,2,animal,0,0,animals,1,earthworm.jpg,137,(unused),284.749662472517,292.272348107919,7.48203089241334,1,1.53825265568958,0,1,0
25,2,animal,0,0,animals,1,prairiedog.jpg,152,(unused),296.626039070099,304.949382021226,8.27295663528984,1,1.01471995732936,0,1,0
26,2,tool,0,0,animals,1,measuringdevice.jpg,145,(unused),309.319725901205,317.576382770465,8.20897306378988,0,0.630208861155552,0,2,1
27,2,tool,0,0,animals,1,caulkinggun.jpg,156,(unused),321.946634599302,331.704575052794,9.71311242588752,0,0.75664351190062,0,2,1
28,2,tool,0,0,animals,1,typewriter.jpg,136,(unused),336.058212452117,344.414800299055,8.31487295164654,0,0.705830318631342,0,2,1
29,2,animal,1,0,animals,1,octopus.jpg,170,(unused),348.768590047832,357.57548695568,8.76766895431954,1,1.74166162705296,1,1,1
30,2,animal,1,0,animals,1,gecko.jpg,122,(unused),362.129472224933,369.468700894085,7.28852913784127,1,1.79308838769794,1,1,1
31,2,tool,0,0,animals,1,pruner.jpg,135,(unused),374.022511362386,380.594325687212,6.53739278364258,0,0.549830572650535,0,2,1
32,2,animal,0,0,animals,1,deer.jpg,142,(unused),384.964776051438,394.372379155135,9.36476181449982,0,1.13440600840477,0,2,1
33,2,tool,0,0,animals,1,chainsaw.jpg,179,(unused),398.725995706634,405.448074702552,6.67717358951822,0,0.650087097059441,0,2,1
34,2,animal,0,0,animals,1,mink.jpg,134,(unused),409.818375924682,417.441159961796,7.56494580545099,1,0.863510398892686,0,1,0
35,2,tool,0,0,animals,1,saw.jpg,163,(unused),421.811514426052,428.683654425899,6.81664146992075,0,0.682449007512332,0,2,1
36,2,tool,0,0,animals,1,electricdrill.jpg,157,(unused),433.037321012169,440.626728010364,7.53046065732176,0,0.585911413443682,0,2,1
37,2,tool,0,0,animals,1,wateringcan.jpg,123,(unused),444.980418010338,452.820018091421,7.79245648588341,0,0.648996274972887,0,2,1
38,2,animal,1,0,animals,1,stickinsect.jpg,162,(unused),457.190365499489,464.379461961391,7.14615041415207,1,1.58713822745995,1,1,1
39,2,tool,0,0,animals,1,magnet.jpg,180,(unused),468.933315729009,477.556849325432,8.57279139439524,0,1.00725547559705,0,2,1
40,2,animal,1,0,animals,1,fly.jpg,147,(unused),481.910542853497,490.600831489963,8.63152980676686,1,0.92781020721668,1,1,1
41,2,tool,0,0,animals,1,glove.jpg,150,(unused),495.154662485344,505.062484330781,9.86967649752231,0,0.669747874162567,0,2,1
42,2,tool,0,0,animals,1,lantern.jpg,140,(unused),509.416276645439,516.638768107456,7.17431002024546,0,0.733925802927843,0,2,1
43,2,animal,1,0,animals,1,waterbuffalo.jpg,173,(unused),520.992408393398,528.665223028696,7.6204548634853,0,0.975964501612907,1,2,0
44,2,animal,1,0,animals,1,springhare.jpg,169,(unused),533.219075834109,539.340434842547,6.07484562743367,1,0.872108360552375,1,1,1
45,2,tool,0,0,animals,1,ruler.jpg,166,(unused),543.894465014793,552.000926491874,8.05554836382713,0,0.687249779330159,0,2,1
46,2,tool,0,0,animals,1,dremel.jpg,165,(unused),556.354616171113,566.362666957684,9.95929352985304,0,0.642035669014149,0,2,1
47,2,tool,0,0,animals,1,jumpercables.jpg,167,(unused),570.716347977057,579.740061570352,8.96631312682501,0,0.726202487494447,0,2,1
48,2,animal,0,0,animals,1,giraffe.jpg,171,(unused),584.093911617434,591.93340938383,7.79605912962316,1,1.66429857477851,0,1,0
49,2,animal,1,0,animals,1,lemur.jpg,127,(unused),596.287190152005,602.34200580596,6.0120606791057,1,0.5660921929084,1,1,1
50,2,animal,1,0,animals,1,chimp.jpg,141,(unused),606.89587272374,614.602066963842,7.66210329615354,1,0.87059095999939,1,1,1
51,2,tool,0,0,animals,1,pencil.jpg,161,(unused),619.15582835958,626.078063425484,6.88267459253035,0,0.524990555615659,0,2,1
52,2,animal,1,0,animals,1,highlandcow.jpg,178,(unused),630.431721351892,637.520743146524,7.04350092658172,0,0.86373202725008,1,2,0
53,2,animal,1,0,animals,1,crab.jpg,143,(unused),642.091240530601,648.94672023573,6.81258716871791,1,1.2713585446545,1,1,1
54,2,tool,0,0,animals,1,crutches.jpg,121,(unused),653.500546099345,661.557051068179,8.00703293925222,0,0.571444309378421,0,2,1
55,2,tool,0,0,animals,1,drill.jpg,124,(unused),665.910644205978,673.133136950935,7.17594250473459,0,0.611824932835589,0,2,1
56,2,tool,0,0,animals,1,carpetblower.jpg,168,(unused),677.486782368647,687.261356816533,9.73012633187918,0,0.714271440538141,0,2,1
57,2,animal,1,0,animals,1,beetle.jpg,125,(unused),691.631662849701,700.422038982859,8.73437065395793,1,0.970126791307848,1,1,1
58,2,tool,0,0,animals,1,ladder.jpg,158,(unused),704.975880562521,713.883005770036,8.86008300569675,0,0.54865507634895,0,2,1
59,2,tool,0,0,animals,1,camera.jpg,133,(unused),718.236701543254,727.410567870884,9.1222342697188,0,0.792702542661573,0,2,1
60,2,animal,1,0,animals,1,shrimp.jpg,177,(unused),731.781058968543,740.337926368709,8.50764581167192,1,1.05987344860114,1,1,1
