trial,phase,object,toShock,seenBefore,shockedCategory,responseSide,filename,num,name,onsetFixationCross,onsetStimulus,interTrialTime,response,reactionTime,wasShocked,buttonPressed,isResponseCorrect
1,1,animal,0,0,tools,1,shrimp.jpg,177,(unused),0.025897238100697,6.74789971932842,6.54697764439244,animal,0.756731413017405,0,1,1
2,1,animal,0,0,tools,1,aardvark.jpg,175,(unused),9.35023719188939,16.8897950613182,7.49700402412772,animal,0.653379446958752,0,1,1
3,1,animal,0,0,tools,1,angelfish.jpg,132,(unused),19.4419848662201,24.8129379576831,5.31665333100683,animal,0.580631635352802,0,1,1
4,1,tool,0,0,tools,1,pencil.jpg,161,(unused),27.3818378785245,34.5876440656839,7.15873595943239,tool,0.54937253441949,0,2,1
5,1,tool,0,0,tools,1,drill.jpg,124,(unused),37.1565520049699,43.89527422427,6.68566043290684,tool,0.623114633044679,0,2,1
6,1,tool,0,0,tools,1,lantern.jpg,140,(unused),46.4475147057356,52.7859270282233,6.28694880326965,tool,0.509862454914582,0,2,1
7,1,animal,0,0,tools,1,prairiedog.jpg,152,(unused),55.3381623778851,62.9109682430235,7.51814753665006,animal,0.612304808719273,0,1,1
8,1,tool,0,0,tools,1,hairbrush.jpg,131,(unused),65.4631750470262,72.3185460572086,6.81089372653064,tool,0.725254531153041,0,2,1
9,1,tool,0,0,tools,1,magnet.jpg,180,(unused),74.8708853259013,79.5913473037244,4.67912292546013,tool,1.07881754264872,0,2,1
10,1,animal,0,0,tools,1,octopus.jpg,170,(unused),82.1602045664458,88.8822907602253,6.66688189170794,animal,1.14531321333106,0,1,1
11,1,tool,0,0,tools,1,ruler.jpg,166,(unused),91.4512147363976,97.2224770831972,5.72099505617614,tool,0.609492580143524,0,2,1
12,1,tool,0,0,tools,1,glove.jpg,150,(unused),99.774740657781,106.196547039949,6.35070881261798,tool,0.933853381885456,0,2,1
13,1,animal,0,0,tools,1,waterbuffalo.jpg,173,(unused),108.765394039063,113.519068089968,4.69722143647149,animal,0.693549925486877,0,1,1
14,1,animal,0,0,tools,1,mink.jpg,134,(unused),116.071439111697,121.392389508963,5.2654276967764,animal,1.05273867708547,0,1,1
15,1,tool,0,0,tools,1,crutches.jpg,121,(unused),123.944587973784,130.900219038132,6.90425145494136,tool,0.619364567293815,0,2,1
16,1,tool,0,0,tools,1,caulkinggun.jpg,156,(unused),133.452408201559,139.974321004512,6.48165459401582,tool,0.976588479446946,0,2,1
17,1,animal,0,0,tools,1,giraffe.jpg,171,(unused),142.526535826958,147.530557557581,4.95795337773949,animal,1.02972991324805,0,1,1
18,1,animal,0,0,tools,1,chimp.jpg,141,(unused),150.099406801859,154.219177333245,4.07990195643684,animal,0.869480032882166,0,1,1
19,1,animal,0,0,tools,1,palmcockatoo.jpg,160,(unused),156.77157882506,163.977376352301,7.15630242092685,animal,0.702739382708387,0,1,1
20,1,tool,0,0,tools,1,camera.jpg,133,(unused),166.52960207983,171.950444003589,5.37327219729242,tool,0.693219244869397,0,2,1
21,1,animal,0,0,tools,1,duck.jpg,149,(unused),174.502825930402,178.889616410393,4.32435482128705,animal,1.29722423298244,0,1,1
22,1,animal,0,0,tools,1,otter.jpg,146,(unused),181.458558668617,186.14563312981,4.64480580633372,animal,0.526523818717578,0,1,1
23,1,tool,0,0,tools,1,dremel.jpg,165,(unused),188.697856612175,193.985482036672,5.23343252065575,tool,0.565026460954869,0,2,1
24,1,tool,0,0,tools,1,ladder.jpg,158,(unused),196.554303056027,200.640843553017,4.02874363042197,tool,0.742920124845114,0,2,1
25,1,animal,0,0,tools,1,elephantafrican.jpg,153,(unused),203.193081789318,209.864935961411,6.62311399744652,animal,0.746461711059965,0,1,1
26,1,animal,0,0,tools,1,sparrow.jpg,172,(unused),212.434028966377,217.104389142039,4.61994656967543,animal,0.691176466150864,0,1,1
27,1,animal,0,0,tools,1,moth.jpg,159,(unused),219.65659177645,225.361198404432,5.65745654713876,animal,0.556793443697643,0,1,1
28,1,tool,0,0,tools,1,typewriter.jpg,136,(unused),227.913410660976,234.752213000565,6.78560026674872,tool,0.698166945371668,0,2,1
29,1,tool,0,0,tools,1,oven.jpg,128,(unused),237.321147561084,241.557845604456,4.17652652957788,tool,0.880971745660645,0,2,1
30,1,tool,0,0,tools,1,telephone.jpg,138,(unused),244.126748411937,251.065676095838,6.88414993771941,tool,0.672581053727299,0,2,1
31,1,animal,0,0,tools,1,gecko.jpg,122,(unused),253.61790438927,260.523429481867,6.85749186098211,animal,0.684152950942007,0,1,1
32,1,animal,0,0,tools,1,bluejay.jpg,139,(unused),263.092362117959,268.696644544225,5.56619023160349,animal,0.573398357656515,0,1,1
33,1,tool,0,0,tools,1,beadingtool.jpg,154,(unused),271.249018773332,276.586658759322,5.28564568442334,tool,0.619762923576673,0,2,1
34,1,animal,0,0,tools,1,highlandcow.jpg,178,(unused),279.138870374391,284.459772660994,5.25939641624518,animal,0.641017893408389,0,1,1
35,1,tool,0,0,tools,1,wheeldolly.jpg,148,(unused),287.012005444753,294.151074766444,7.0768208807235,tool,0.647161304236761,0,2,1
36,1,animal,0,0,tools,1,deer.jpg,142,(unused),296.719983026468,300.956693257874,4.18449200063399,animal,0.742871372707668,0,1,1
37,1,tool,0,0,tools,1,measuringdevice.jpg,145,(unused),303.508904552205,311.315304681526,7.74633908278024,tool,0.7446707114741,0,2,1
38,1,tool,0,0,tools,1,smartphone.jpg,176,(unused),313.867424886336,317.937314603869,4.02334880394145,tool,1.06107176452042,0,2,1
39,1,animal,0,0,tools,1,brown_bear.jpg,129,(unused),320.489529105577,326.994751999068,6.4522841720729,animal,0.562030128911829,0,1,1
40,1,animal,0,0,tools,1,lemur.jpg,127,(unused),329.563666032371,335.768638622123,6.15666952026059,animal,0.684562853783973,0,1,1
41,1,tool,0,0,tools,1,electricdrill.jpg,157,(unused),338.337542391818,344.158903012663,5.78079273261084,tool,0.58168750402001,0,2,1
42,1,tool,0,0,tools,1,tape.jpg,126,(unused),346.727778557437,352.76605379661,5.9782911712168,tool,0.677866811816784,0,2,1
43,1,tool,0,0,tools,1,saw.jpg,163,(unused),355.318171114781,360.505671836441,5.13961748181066,tool,0.609690796071845,0,2,1
44,1,animal,0,0,tools,1,fly.jpg,147,(unused),363.057800273258,370.363578599261,7.2610584022253,animal,1.01025696234501,0,1,1
45,1,tool,0,0,tools,1,binoculars.jpg,144,(unused),372.915965016402,380.45539330778,7.48217068099831,tool,0.909843595535676,0,2,1
46,1,animal,0,0,tools,1,penguin.jpg,164,(unused),383.007602356947,389.362702343733,6.29474090917963,animal,0.904047222950794,0,1,1
47,1,animal,0,0,tools,1,crab.jpg,143,(unused),391.914940580034,396.652047884772,4.69073008811296,animal,0.783948256111216,0,1,1
48,1,animal,0,0,tools,1,earthworm.jpg,137,(unused),399.220955182583,407.077291613387,7.80301108670377,animal,0.794282426356403,0,1,1
49,1,tool,0,0,tools,1,faxmachine.jpg,174,(unused),409.629512209113,414.950411929814,5.26454902126888,tool,0.724522928348961,0,2,1
50,1,tool,0,0,tools,1,carpetblower.jpg,168,(unused),417.519296134506,421.655960243825,4.08996056328387,tool,1.07430187589307,0,2,1
51,1,animal,0,0,tools,1,lobsterspiny.jpg,155,(unused),424.208172821106,431.013672318831,6.74679215516822,animal,0.895022304193844,0,1,1
52,1,tool,0,0,tools,1,chainsaw.jpg,179,(unused),433.58253984516,438.83672034097,5.20188467423214,tool,0.701175465448614,0,2,1
53,1,tool,0,0,tools,1,pruner.jpg,135,(unused),441.40563469501,447.043312977087,5.5969188411462,tool,0.656115660688556,0,2,1
54,1,animal,0,0,tools,1,beetle.jpg,125,(unused),449.595728902102,455.350314168949,5.70121688221194,tool,0.854538464885991,0,2,0
55,1,animal,0,0,tools,1,dog.jpg,130,(unused),457.902528991394,462.272703973081,4.32309023529838,animal,0.684461179917889,0,1,1
56,1,tool,0,0,tools,1,jumpercables.jpg,167,(unused),464.841567971294,470.896254719566,6.00925436536212,tool,0.837316451498737,0,2,1
57,1,tool,0,0,tools,1,wateringcan.jpg,123,(unused),473.465349648958,480.938041074869,7.42034256215628,tool,0.91303204948872,0,2,1
58,1,tool,0,0,tools,1,corkscrew.jpg,151,(unused),483.506924638085,490.846139446419,7.28594810471914,tool,0.765292865728043,0,2,1
59,1,animal,0,0,tools,1,stickinsect.jpg,162,(unused),493.398387625591,497.601693662004,4.14933243668339,animal,1.11416797429774,0,1,1
60,1,animal,0,0,tools,1,springhare.jpg,169,(unused),500.17059871465,505.424847848337,5.1913443816975,animal,0.764263297556681,0,1,1
