trial,phase,object,toShock,seenBefore,shockedCategory,responseSide,filename,num,name,onsetFixationCross,onsetStimulus,interTrialTime,response,reactionTime,wasShocked,buttonPressed,isResponseCorrect
1,2,tool,0,0,animals,2,shovel.jpg,52,(unused),0.0314172323651292,8.52089642990177,8.06662499481735,1,0.908550057272805,0,1,0
2,2,animal,1,0,animals,2,herculesbeetle.jpg,28,(unused),12.9076167838484,20.9302706664184,7.96703244346012,0,2.96382914396236,1,2,0
3,2,tool,0,0,animals,2,pressuregauge.jpg,38,(unused),25.4838110752662,32.3554080695885,6.81607785851635,,4.3008325488936,0,,0
4,2,tool,0,0,animals,2,monkeywrench.jpg,16,(unused),36.6754176146824,44.0641563279933,7.34056327134804,0,1.2607688122971,0,2,1
5,2,tool,0,0,animals,2,plunger.jpg,30,(unused),48.4175169324135,55.7394502501811,7.2756183879638,0,0.922992113615692,0,2,1
6,2,animal,1,0,animals,2,phasmagigas.jpg,36,(unused),60.0928932836723,68.5991383283072,8.45118327148407,1,1.11681814401163,1,1,1
7,2,tool,0,0,animals,2,woodchipper.jpg,13,(unused),73.1526364000438,81.1249841724693,7.92856886588557,0,1.19449230990722,0,2,1
8,2,tool,0,0,animals,2,abacus.jpg,12,(unused),85.4784984092857,95.0688525399764,9.53166352501254,0,0.920165149238528,0,2,1
9,2,tool,0,0,animals,2,electricbreaker.jpg,41,(unused),99.4221663169865,107.161235003176,7.67725751715189,0,0.946277524761172,0,2,1
10,2,animal,1,0,animals,2,emu.jpg,26,(unused),111.514568665798,121.538601070366,9.96562851891121,1,0.887491804427555,1,1,1
11,2,animal,1,0,animals,2,mountainsheep.jpg,7,(unused),126.092096896953,133.564229455731,7.42278106788872,1,0.895368110783238,1,1,1
12,2,animal,1,0,animals,2,racoon.jpg,23,(unused),138.117758959566,145.506460467537,7.32838135347909,1,0.97659185856719,1,1,1
13,2,tool,0,0,animals,2,italiangardeningtool.jpg,2,(unused),150.059952445295,156.814894661553,6.71016174662107,0,0.845640287090646,0,2,1
14,2,tool,0,0,animals,2,floorbuffer.jpg,56,(unused),161.16823922919,169.374248084059,8.14003355268391,0,0.868750897285281,0,2,1
15,2,animal,0,0,animals,2,heckcattle.jpg,37,(unused),173.710946469348,183.634855775557,9.85768369603578,1,0.971785313508008,0,1,0
16,2,animal,0,0,animals,2,partridge.jpg,33,(unused),187.988223756898,196.694675227023,8.65810821970768,1,2.32354095652954,0,1,0
17,2,tool,0,0,animals,2,blower.jpg,27,(unused),201.047971363569,209.303995742048,8.1999883455446,1,1.89772166928196,0,1,0
18,2,tool,0,0,animals,2,sawblade.jpg,34,(unused),213.657364044124,223.531258788935,9.81482565995698,0,0.870994443439486,0,2,1
19,2,tool,0,0,animals,2,anvil.jpg,6,(unused),227.88462035556,236.24074377722,8.30032518773151,0,1.26104945602674,0,2,1
20,2,animal,1,0,animals,2,flounder.jpg,29,(unused),240.594104702377,246.84866396022,6.20292489708387,0,0.994537341197429,1,2,0
21,2,tool,0,0,animals,2,clamp.jpg,31,(unused),251.402186728605,258.67421645952,7.20755878037813,0,0.703323446414288,0,2,1
22,2,animal,1,0,animals,2,panda.jpg,18,(unused),263.010799379959,269.682356731351,6.61193772613967,1,0.958743558850983,1,1,1
23,2,animal,1,0,animals,2,porcupine.jpg,60,(unused),274.235815352598,282.792122748249,8.49269871199128,1,1.0185421624974,1,1,1
24,2,animal,1,0,animals,2,quail.jpg,47,(unused),287.34564134707,297.069323059235,9.67389719459819,1,0.846919381025145,1,1,1
25,2,tool,0,0,animals,2,kettle.jpg,58,(unused),301.622915106529,308.49459549213,6.81555841146754,0,0.875105633524072,0,2,1
26,2,animal,1,0,animals,2,mahimahi.jpg,39,(unused),312.847928192545,320.470352364213,7.5624311294993,1,1.569861155951,1,1,1
27,2,animal,1,0,animals,2,yak.jpg,53,(unused),325.023720217259,331.545141191835,6.46316636222296,0,1.85852744714248,1,2,0
28,2,animal,1,0,animals,2,cat.jpg,8,(unused),336.098622906051,344.58817622387,8.43695167955137,1,1.14801001066735,1,1,1
29,2,tool,0,0,animals,2,vegetablepeeler.jpg,3,(unused),349.141650881902,355.596384812401,6.39938609618855,0,0.748229329734386,0,2,1
30,2,animal,0,0,animals,2,rat.jpg,48,(unused),359.966416295818,368.706144414587,8.67542305640133,1,1.04501568640626,0,1,0
31,2,tool,0,0,animals,2,flashlight.jpg,51,(unused),373.059498283557,379.113918149669,6.002613613052,0,0.719654666312636,0,2,1
32,2,animal,1,0,animals,2,cockatiel.jpg,20,(unused),383.46725854774,392.457044398934,8.94754293449785,1,1.00107233089693,1,1,1
33,2,tool,0,0,animals,2,blender.jpg,24,(unused),397.027353190428,406.517666010363,9.4264365250149,0,0.649127133077855,0,2,1
34,2,animal,0,0,animals,2,tragopan.jpg,55,(unused),410.88769877672,419.810911445011,8.86209117142649,1,1.47835173530257,0,1,0
35,2,tool,0,0,animals,2,workbench.jpg,11,(unused),424.180942928426,432.186801807287,7.9562687687805,0,0.934925405725153,0,2,1
36,2,animal,1,0,animals,2,seahorse.jpg,42,(unused),436.540139318739,443.078356579963,6.48022358149282,1,1.05882881039906,1,1,1
37,2,tool,0,0,animals,2,scale.jpg,43,(unused),447.63176901527,456.671712155248,8.98366734892303,0,0.910015789040699,0,2,1
38,2,tool,0,0,animals,2,spoon.jpg,44,(unused),461.025065382746,469.91491063419,8.83077289159205,0,0.907299799213433,0,2,1
39,2,animal,1,0,animals,2,caterpillarpeacockmoth.jpg,1,(unused),474.268283426567,482.174047752547,7.85279486466017,1,0.793685916232789,1,1,1
40,2,animal,1,0,animals,2,armadillo.jpg,57,(unused),486.727568275783,493.599256038306,6.80941121426785,1,1.03096297285447,1,1,1
41,2,tool,0,0,animals,2,nailgun.jpg,25,(unused),498.152762769905,507.643038705235,9.44034876953141,0,0.667719539596874,0,2,1
42,2,tool,0,0,animals,2,viceclamp.jpg,4,(unused),511.996390329055,521.886988347165,9.83033119089817,0,0.592383857623645,0,2,1
43,2,animal,0,0,animals,2,frog.jpg,5,(unused),526.240353762621,534.696569812748,8.40621031810531,1,0.740334099971733,0,1,0
44,2,animal,1,0,animals,2,chinchilla.jpg,19,(unused),539.049905399785,546.171706382005,7.06761836336107,1,1.75669995932367,1,1,1
45,2,animal,1,0,animals,2,salamander.jpg,9,(unused),550.725280147366,559.348231929245,8.55990796241246,1,1.2566492830847,1,1,1
46,2,tool,0,0,animals,2,television.jpg,54,(unused),563.901768809999,573.809039310783,9.85951550347549,0,1.00646293564932,0,2,1
47,2,tool,0,0,animals,2,washboard.jpg,59,(unused),578.162421404495,586.952150293031,8.72264655306326,0,0.58286025275811,0,2,1
48,2,animal,0,0,animals,2,ferret.jpg,21,(unused),591.305507690093,598.51077628699,7.14396328291267,0,1.02472305999254,0,2,1
49,2,animal,0,0,animals,2,beta.jpg,17,(unused),602.864113798441,611.9708177517,9.05629495451004,1,0.593174150364575,0,1,0
50,2,tool,0,0,animals,2,hourglass.jpg,10,(unused),616.324189902605,624.796911652847,8.41872969277593,0,0.57663798035901,0,2,1
51,2,animal,0,0,animals,2,leopard.jpg,50,(unused),629.150409852879,636.889348641113,7.67549162075019,1,1.75469664420052,0,1,0
52,2,animal,0,0,animals,2,squirel.jpg,46,(unused),641.24271694319,647.914270766487,6.61039248621323,1,0.845249631020124,0,1,0
53,2,tool,0,0,animals,2,edger.jpg,40,(unused),652.267651897992,661.207513314515,8.88615473538884,0,0.72552573313078,0,2,1
54,2,tool,0,0,animals,2,spraybottle.jpg,49,(unused),665.560858844357,672.03224825854,6.41016560515725,0,0.817307458381038,0,2,1
55,2,tool,0,0,animals,2,compass.jpg,32,(unused),676.385594109119,685.342176760139,8.90470179531679,0,0.646853437767277,0,2,1
56,2,animal,0,0,animals,2,rhino.jpg,35,(unused),689.695508177612,698.151548464581,8.40908125128785,1,0.797004889160235,0,1,0
57,2,animal,1,0,animals,2,firebug.jpg,15,(unused),702.505051796383,708.759613620112,6.20055063840322,0,0.421326212439453,1,2,0
58,2,animal,1,0,animals,2,hippo.jpg,45,(unused),713.31309845645,719.851212526019,6.47299653534344,1,0.807216792816689,1,1,1
59,2,tool,0,0,animals,2,loom.jpg,14,(unused),724.404730804104,732.577354280929,8.10771460665518,0,0.704595484163292,0,2,1
60,2,tool,0,0,animals,2,bucket.jpg,22,(unused),736.930718734178,745.05328916132,8.06688894817166,0,0.624146954545722,0,2,1
