trial,phase,object,toShock,seenBefore,shockedCategory,responseSide,filename,num,name,onsetFixationCross,onsetStimulus,interTrialTime,response,reactionTime,wasShocked,buttonPressed,isResponseCorrect
1,1,animal,0,0,animals,1,flounder.jpg,29,(unused),0.0185712656402757,5.87323569056389,5.79332870623681,animal,0.962557487473532,0,1,1
2,1,tool,0,0,animals,1,hourglass.jpg,10,(unused),8.44215100681686,15.080674432862,6.59730375998034,tool,0.829527657579092,0,2,1
3,1,animal,0,0,animals,1,beta.jpg,17,(unused),17.6497308737235,22.4035277671865,4.70117800127951,animal,0.62700678717556,0,1,1
4,1,tool,0,0,animals,1,italiangardeningtool.jpg,2,(unused),24.9557342504504,32.3616961878615,7.35866307258364,tool,0.783241993145566,0,2,1
5,1,animal,0,0,animals,1,rhino.jpg,35,(unused),34.9139235190796,39.6677441471347,4.71135397408095,animal,0.912539397864748,0,1,1
6,1,tool,0,0,animals,1,blender.jpg,24,(unused),42.2199076515408,46.5900848783913,4.33007088417141,tool,0.621585677756229,0,2,1
7,1,tool,0,0,animals,1,nailgun.jpg,25,(unused),49.1422971349348,54.8468287102842,5.65947280573639,tool,0.581231416497758,0,2,1
8,1,animal,0,0,animals,1,phasmagigas.jpg,36,(unused),57.4157613463758,63.0869519120679,5.6235364888729,animal,0.652506400365382,0,1,1
9,1,animal,0,0,animals,1,mahimahi.jpg,39,(unused),65.6392004119771,70.3762676244969,4.69239548194014,animal,0.74046199229997,0,1,1
10,1,tool,0,0,animals,1,vegetablepeeler.jpg,3,(unused),72.9285186903089,79.483820613581,6.50788872250465,tool,0.625320989569445,0,2,1
11,1,tool,0,0,animals,1,pressuregauge.jpg,38,(unused),82.036012984383,88.7413630824649,6.65121453889634,tool,0.885306197145837,0,2,1
12,1,tool,0,0,animals,1,loom.jpg,14,(unused),91.3103095102815,96.8313075691767,5.46768351058565,tool,0.681702195364778,0,2,1
13,1,animal,0,0,animals,1,ferret.jpg,21,(unused),99.4002831841262,105.772032988156,6.32619366815253,animal,0.567358867414441,0,1,1
14,1,animal,0,0,animals,1,emu.jpg,26,(unused),108.324288544296,113.661891324708,5.28914987437914,animal,0.614926520627705,0,1,1
15,1,animal,0,0,animals,1,salamander.jpg,9,(unused),116.230796698092,123.386538930143,7.1074644891997,animal,0.554740723666328,0,1,1
16,1,tool,0,0,animals,1,abacus.jpg,12,(unused),125.938748941522,133.194614914199,7.20772980260719,tool,0.60913463837278,0,2,1
17,1,animal,0,0,animals,1,racoon.jpg,23,(unused),135.746781305244,139.916809517337,4.11859528268448,animal,0.568244424337536,0,1,1
18,1,animal,0,0,animals,1,leopard.jpg,50,(unused),142.485714569983,149.257751498444,6.73025716928091,animal,0.666691027276102,0,1,1
19,1,tool,0,0,animals,1,clamp.jpg,31,(unused),151.826716208312,156.597184087708,4.71655394868073,tool,0.687596072224551,0,2,1
20,1,tool,0,0,animals,1,television.jpg,54,(unused),159.149417192206,166.188242817356,6.99028336251651,tool,0.753054477028854,0,2,1
21,1,animal,0,0,animals,1,cat.jpg,8,(unused),168.740630838187,175.729581743501,6.9367569509807,animal,0.601086366059462,0,1,1
22,1,animal,0,0,animals,1,caterpillarpeacockmoth.jpg,1,(unused),178.281736587987,182.4684806893,4.13922144937938,animal,0.588536218710942,0,1,1
23,1,animal,0,0,animals,1,frog.jpg,5,(unused),185.020686851827,192.059663223718,6.9783858653648,animal,0.561846347738538,0,1,1
24,1,tool,0,0,animals,1,electricbreaker.jpg,41,(unused),194.611920062809,202.067928956225,7.40461432967706,tool,1.04001212553521,0,2,1
25,1,tool,0,0,animals,1,blower.jpg,27,(unused),204.620098875386,212.543088779845,7.88798893427047,tool,0.555378991784892,0,2,1
26,1,tool,0,0,animals,1,anvil.jpg,6,(unused),215.095428048538,219.332096904775,4.1895779039822,tool,0.556612549164129,0,2,1
27,1,animal,0,0,animals,1,chinchilla.jpg,19,(unused),221.884342197307,228.456284957165,6.52221405918915,animal,0.545911454935776,0,1,1
28,1,animal,0,0,animals,1,squirel.jpg,46,(unused),231.008555908717,237.180132321919,6.11154582509877,animal,0.57551266244991,0,1,1
29,1,tool,0,0,animals,1,spoon.jpg,44,(unused),239.732360294613,244.202489025916,4.4345905626314,tool,1.19843315925755,0,2,1
30,1,animal,0,0,animals,1,heckcattle.jpg,37,(unused),246.77146111275,253.627034187715,6.81016757418961,animal,1.15142102382561,0,1,1
31,1,animal,0,0,animals,1,herculesbeetle.jpg,28,(unused),256.195852961906,262.467601547132,6.21403304746693,animal,0.683098687519305,0,1,1
32,1,animal,0,0,animals,1,firebug.jpg,15,(unused),265.019778201786,271.241458983051,6.17451725187295,animal,0.517691664903396,0,1,1
33,1,tool,0,0,animals,1,kettle.jpg,58,(unused),273.793676692138,278.180469096555,4.34161623485186,tool,0.994120968529387,0,2,1
34,1,animal,0,0,animals,1,armadillo.jpg,57,(unused),280.73269257892,287.371396259578,6.59682608036353,animal,0.48560634353089,0,1,1
35,1,animal,0,0,animals,1,cockatiel.jpg,20,(unused),289.923600497679,296.512072156649,6.55284915110887,animal,0.6033587930051,0,1,1
36,1,tool,0,0,animals,1,monkeywrench.jpg,16,(unused),299.064415274195,304.168557858802,5.06291386706641,tool,0.562171255076464,0,2,1
37,1,tool,0,0,animals,1,sawblade.jpg,34,(unused),306.720739003784,314.243502403246,7.47125759758286,tool,1.05266747486166,0,2,1
38,1,tool,0,0,animals,1,spraybottle.jpg,49,(unused),316.795713376838,321.416049048135,4.57206755044628,tool,0.801494216180799,0,2,1
39,1,animal,0,0,animals,1,porcupine.jpg,60,(unused),323.96827573788,330.840306828914,6.81848309302194,animal,0.568673250707434,0,1,1
40,1,tool,0,0,animals,1,scale.jpg,43,(unused),333.392684265398,339.831216800394,6.38999843542095,tool,0.531253739844033,0,2,1
41,1,animal,0,0,animals,1,rat.jpg,48,(unused),342.400098118445,348.054601340576,5.61032813238398,animal,0.484270150072916,0,1,1
42,1,tool,0,0,animals,1,edger.jpg,40,(unused),350.623469187643,357.4955599359,6.82118641133765,tool,0.554743610306105,0,2,1
43,1,tool,0,0,animals,1,washboard.jpg,59,(unused),360.047941541974,365.785865765758,5.68512546456077,tool,0.5858282299032,0,2,1
44,1,animal,0,0,animals,1,hippo.jpg,45,(unused),368.338074173449,375.84415311599,7.45982967220511,animal,0.534002141608653,0,1,1
45,1,animal,0,0,animals,1,tragopan.jpg,55,(unused),378.413046942813,385.869093041809,7.40615542719184,animal,0.608465579429321,0,1,1
46,1,tool,0,0,animals,1,woodchipper.jpg,13,(unused),388.421282205234,396.110629093373,7.64952504415171,tool,0.72249394291066,0,2,1
47,1,tool,0,0,animals,1,floorbuffer.jpg,56,(unused),398.663002681005,403.733761918573,5.01770780241773,tool,0.71173062555863,0,2,1
48,1,animal,0,0,animals,1,partridge.jpg,33,(unused),406.285959100442,411.390054215863,5.04782151151879,animal,0.556719354834058,0,1,1
49,1,tool,0,0,animals,1,viceclamp.jpg,4,(unused),413.942261661341,418.679361589111,4.6745001757953,tool,0.616823042932083,0,2,1
50,1,tool,0,0,animals,1,compass.jpg,32,(unused),421.248249001181,426.402203441025,5.10974950903464,tool,0.511339453800247,0,2,1
51,1,animal,0,0,animals,1,mountainsheep.jpg,7,(unused),428.954567406523,433.191257431452,4.18995230228627,tool,0.622540193293389,0,2,0
52,1,tool,0,0,animals,1,plunger.jpg,30,(unused),435.743504006934,443.599871228564,7.8006958019206,tool,0.537410942395582,0,2,1
53,1,tool,0,0,animals,1,bucket.jpg,22,(unused),446.152071297072,453.95838643089,7.76560986649066,tool,0.583384208264761,0,2,1
54,1,animal,0,0,animals,1,yak.jpg,53,(unused),456.527269994107,463.132569479772,6.56216344411162,animal,0.698707390032723,0,1,1
55,1,animal,0,0,animals,1,quail.jpg,47,(unused),465.701490890044,471.255769659898,5.50484982762103,animal,0.573809865743897,0,1,1
56,1,animal,0,0,animals,1,panda.jpg,18,(unused),473.808149662285,479.312539279106,5.44800637001577,animal,0.600492359748387,0,1,1
57,1,tool,0,0,animals,1,workbench.jpg,11,(unused),481.881454274622,486.985524051761,5.0460744321703,tool,0.85188949338044,0,2,1
58,1,tool,0,0,animals,1,shovel.jpg,52,(unused),489.554372013088,495.192102896155,5.59630381289404,tool,0.630534581667234,0,2,1
59,1,animal,0,0,animals,1,seahorse.jpg,42,(unused),497.744509199038,504.900243412645,7.10770854542597,animal,0.43691514598504,0,1,1
60,1,tool,0,0,animals,1,flashlight.jpg,51,(unused),507.43579238096,513.707503760608,6.22303976082986,tool,0.974106291570934,0,2,1
