trial,phase,object,toShock,seenBefore,shockedCategory,responseSide,filename,num,name,onsetFixationCross,onsetStimulus,interTrialTime,response,reactionTime,wasShocked,buttonPressed,isResponseCorrect
1,1,animal,0,0,animals,1,duck.jpg,149,(unused),0.0184134748305951,6.02296787927662,5.94616308191522,animal,0.915306469708412,0,1,1
2,1,tool,0,0,animals,1,drill.jpg,124,(unused),8.5752997503896,14.8968859275801,6.28165570584977,tool,0.872844987300596,0,2,1
3,1,tool,0,0,animals,1,camera.jpg,133,(unused),17.4491087495717,23.0201483180454,5.51327684150827,tool,0.990709125567264,0,2,1
4,1,animal,0,0,animals,1,lobsterspiny.jpg,155,(unused),25.5723499716796,31.3934924151681,5.7837986992359,animal,1.30576903362635,0,1,1
5,1,tool,0,0,animals,1,hairbrush.jpg,131,(unused),33.9457829117619,40.9346063391058,6.93566701999143,tool,1.08390250397588,0,2,1
6,1,animal,0,0,animals,1,sparrow.jpg,172,(unused),43.503457548316,48.4406840635456,4.89390187946335,animal,0.94604260579581,0,1,1
7,1,animal,0,0,animals,1,palmcockatoo.jpg,160,(unused),50.9928289474901,56.8475078443362,5.80636403104387,animal,0.811485292304496,0,1,1
8,1,tool,0,0,animals,1,corkscrew.jpg,151,(unused),59.3996360501797,63.6863085477671,4.23525173834275,tool,0.863835605548047,0,2,1
9,1,animal,0,0,animals,1,beetle.jpg,125,(unused),66.2384787695955,70.5417450152681,4.26484371611468,animal,1.12570520140252,0,1,1
10,1,animal,0,0,animals,1,moth.jpg,159,(unused),73.0940191544942,77.7641471685392,4.62605828282124,animal,0.829438305604526,0,1,1
11,1,animal,0,0,animals,1,waterbuffalo.jpg,173,(unused),80.3165040568038,85.6872710666221,5.3283905774821,animal,0.938556704403709,0,1,1
12,1,tool,0,0,animals,1,faxmachine.jpg,174,(unused),88.2395727888606,94.7613683403624,6.47232519835288,tool,1.49882927588806,0,2,1
13,1,animal,0,0,animals,1,chimp.jpg,141,(unused),97.3301775335876,102.484108385541,5.10692909250393,animal,0.73430224918593,0,1,1
14,1,tool,0,0,animals,1,pruner.jpg,135,(unused),105.053128300155,109.206348087695,4.09986729372475,tool,0.963291610803026,0,2,1
15,1,animal,0,0,animals,1,deer.jpg,142,(unused),111.758523120514,119.114369965515,7.30774469664458,animal,0.765569518637676,0,1,1
16,1,animal,0,0,animals,1,penguin.jpg,164,(unused),121.683197761237,129.189118005918,7.46208430287608,animal,0.833135391522774,0,1,1
17,1,tool,0,0,animals,1,saw.jpg,163,(unused),131.741274756972,137.29570871025,5.51027917452367,tool,0.910984596474918,0,2,1
18,1,tool,0,0,animals,1,dremel.jpg,165,(unused),139.847857122255,146.436365076906,6.54372519659054,tool,0.963365700058603,0,2,1
19,1,animal,0,0,animals,1,brown_bear.jpg,129,(unused),148.988559353688,156.194256785357,7.16268711084912,animal,0.741770510279821,0,1,1
20,1,tool,0,0,animals,1,magnet.jpg,180,(unused),158.746431176711,165.918762784822,7.12317467727239,tool,0.82664825178199,0,2,1
21,1,animal,0,0,animals,1,fly.jpg,147,(unused),168.470909593163,172.790963950943,4.26873515672849,animal,0.695665183582605,0,1,1
22,1,animal,0,0,animals,1,aardvark.jpg,175,(unused),175.343149247208,182.915805308528,7.52602319228163,animal,0.745999050293904,0,1,1
23,1,tool,0,0,animals,1,telephone.jpg,138,(unused),185.467973605959,191.656227027135,6.1438243979387,tool,0.592969457249637,0,2,1
24,1,tool,0,0,animals,1,smartphone.jpg,176,(unused),194.208363572029,198.862025489607,4.60563934062239,tool,0.912355087333708,0,2,1
25,1,animal,0,0,animals,1,gecko.jpg,122,(unused),201.414159147907,207.869105664124,6.40765261432129,animal,0.721616949873351,0,1,1
26,1,animal,0,0,animals,1,bluejay.jpg,139,(unused),210.421414121749,217.143402690193,6.67452018710924,animal,0.734541515786077,0,1,1
27,1,tool,0,0,animals,1,wheeldolly.jpg,148,(unused),219.712274105565,224.532713502959,4.77716207999859,tool,0.8735396943448,0,2,1
28,1,animal,0,0,animals,1,elephantafrican.jpg,153,(unused),227.084898799225,234.857713238354,7.72754813908386,animal,0.707855271594781,0,1,1
29,1,tool,0,0,animals,1,electricdrill.jpg,157,(unused),237.409871593073,245.049244227068,7.58785151829927,tool,0.831693056537915,0,2,1
30,1,animal,0,0,animals,1,earthworm.jpg,137,(unused),247.601413486698,252.45521293446,4.81538820739527,animal,0.836812912747519,0,1,1
31,1,animal,0,0,animals,1,springhare.jpg,169,(unused),254.990705055501,262.496672127157,7.4547072611528,animal,0.799688743324623,0,1,1
32,1,tool,0,0,animals,1,oven.jpg,128,(unused),265.065514997317,272.18763750374,7.08021461557514,tool,0.698027700706007,0,2,1
33,1,animal,0,0,animals,1,prairiedog.jpg,152,(unused),274.739978676102,281.011591490143,6.22704271923212,animal,0.680457962990658,0,1,1
34,1,tool,0,0,animals,1,typewriter.jpg,136,(unused),283.580457132325,289.668588386413,6.03991079715092,tool,0.682625795360764,0,2,1
35,1,animal,0,0,animals,1,crab.jpg,143,(unused),292.237432218771,300.160355338179,7.86168917125214,animal,0.671326382076586,0,1,1
36,1,tool,0,0,animals,1,ruler.jpg,166,(unused),302.712565010131,310.568747822642,7.80878736442414,tool,0.658133362888293,0,2,1
37,1,tool,0,0,animals,1,ladder.jpg,158,(unused),313.137673762573,320.793682160638,7.59867671153255,tool,0.777587373186179,0,2,1
38,1,animal,0,0,animals,1,shrimp.jpg,177,(unused),323.345831534841,328.950254887902,5.56049318231632,animal,0.682187995215827,0,1,1
39,1,tool,0,0,animals,1,carpetblower.jpg,168,(unused),331.502452051278,336.189427833713,4.62763411710398,tool,0.694311691557232,0,2,1
40,1,animal,0,0,animals,1,lemur.jpg,127,(unused),338.758295721024,343.211718436149,4.40220407481038,animal,0.743177564667349,0,1,1
41,1,animal,0,0,animals,1,angelfish.jpg,132,(unused),345.763944144735,352.235711487796,6.41412652702278,animal,0.83047170638747,0,1,1
42,1,animal,0,0,animals,1,dog.jpg,130,(unused),354.787902236517,359.091251231229,4.25636441751631,animal,0.81321692819165,0,1,1
43,1,tool,0,0,animals,1,tape.jpg,126,(unused),361.643432037236,367.731511011893,6.03486002991924,tool,0.685377361258361,0,2,1
44,1,tool,0,0,animals,1,caulkinggun.jpg,156,(unused),370.283668404412,376.939001660128,6.61090652492796,tool,0.744950254341347,0,2,1
45,1,tool,0,0,animals,1,measuringdevice.jpg,145,(unused),379.491138525756,386.396489020854,6.86111690334608,tool,0.798832386994945,0,2,1
46,1,animal,0,0,animals,1,highlandcow.jpg,178,(unused),388.96541784738,393.969366708474,4.9509783896278,animal,0.761129615768368,0,1,1
47,1,tool,0,0,animals,1,crutches.jpg,121,(unused),396.521527949787,401.608877578265,5.03535885899664,tool,0.866922337125288,0,2,1
48,1,tool,0,0,animals,1,glove.jpg,150,(unused),404.161037857381,408.931433971896,4.71287664697219,tool,0.740471222081396,0,2,1
49,1,animal,0,0,animals,1,otter.jpg,146,(unused),411.483626324281,418.689298097333,7.1497224922876,animal,0.713031897493238,0,1,1
50,1,animal,0,0,animals,1,mink.jpg,134,(unused),421.24146928136,426.578991704585,5.27977590895909,animal,0.742582926227442,0,1,1
51,1,tool,0,0,animals,1,beadingtool.jpg,154,(unused),429.131191433823,433.601348057226,4.42343681114483,tool,0.839452542929394,0,2,1
52,1,tool,0,0,animals,1,jumpercables.jpg,167,(unused),436.153523410778,443.442603328067,7.23064346831861,tool,0.839506105291548,0,2,1
53,1,animal,0,0,animals,1,octopus.jpg,170,(unused),445.99476938037,450.78187278235,4.74787557479973,animal,0.706477724615979,0,1,1
54,1,tool,0,0,animals,1,wateringcan.jpg,123,(unused),453.33405390909,461.256970934576,7.87721259766694,tool,1.02070693496262,0,2,1
55,1,animal,0,0,animals,1,stickinsect.jpg,162,(unused),463.809153985713,469.029922968038,5.17768811640932,animal,1.1089334466642,0,1,1
56,1,tool,0,0,animals,1,binoculars.jpg,144,(unused),471.582049570218,478.987946433484,7.34975591616597,tool,0.731211989549593,0,2,1
57,1,tool,0,0,animals,1,lantern.jpg,140,(unused),481.540132691948,486.493989518792,4.9009935803282,tool,0.924471727556011,0,2,1
58,1,tool,0,0,animals,1,pencil.jpg,161,(unused),489.062840086537,493.499671298704,4.39175548663886,tool,0.711007432643783,0,2,1
59,1,animal,0,0,animals,1,giraffe.jpg,171,(unused),496.051802711875,502.390168662121,6.28978145130491,animal,0.802723516202605,0,1,1
60,1,tool,0,0,animals,1,chainsaw.jpg,179,(unused),504.942332148563,510.513373320699,5.5081298072772,tool,0.693837327882648,0,2,1
