trial,phase,object,toShock,seenBefore,shockedCategory,responseSide,filename,num,name,onsetFixationCross,onsetStimulus,interTrialTime,response,reactionTime,wasShocked,buttonPressed,isResponseCorrect
1,3,animal,0,0,animals,2,crow.jpg,75,(unused),0.0184395099804533,6.94056760397871,6.84616865944702,animal,1.51862399946913,0,2,1
2,3,tool,0,0,animals,2,avocadoslicer.jpg,76,(unused),9.50943924024432,17.4824148571024,7.9332912376558,tool,0.963124073397921,0,1,1
3,3,animal,0,0,animals,2,baboon.jpg,113,(unused),20.0346115464254,26.6563734587162,6.57712848120063,animal,0.473465010152722,0,2,1
4,3,tool,0,0,animals,2,reflexhammer.jpg,93,(unused),29.2087334015105,35.8139319822003,6.56562741312893,tool,0.855237262898299,0,1,1
5,3,animal,0,0,animals,2,dolphin.jpg,86,(unused),38.3661568960906,45.62188945034,7.2026214455825,animal,0.979508114842247,0,2,1
6,3,tool,0,0,animals,2,clippers.jpg,61,(unused),48.1740944787398,53.3614995215084,5.14030572816904,tool,0.777284531994155,0,1,1
7,3,tool,0,0,animals,2,mixer.jpg,116,(unused),55.9136917205578,61.5846519428396,5.61512816572565,tool,0.88545166377844,0,1,1
8,3,tool,0,0,animals,2,ducttape.jpg,83,(unused),64.1369801329929,70.4920368691874,6.30501038507445,tool,0.53931998526059,0,1,1
9,3,animal,0,0,animals,2,goldfish.jpg,98,(unused),73.0442515195991,80.3166981503073,7.2288285569061,tool,0.58202472002813,0,1,0
10,3,animal,0,0,animals,2,seaslug.jpg,119,(unused),82.8855370717301,89.9411061159226,7.00366703097594,animal,0.838930839017848,0,2,1
11,3,tool,0,0,animals,2,wrench.jpg,118,(unused),92.4933063333156,98.8817078316551,6.33690314430619,animal,0.760565003063675,0,2,0
12,3,tool,0,0,animals,2,stove.jpg,101,(unused),101.433889767226,106.020796582208,4.5297541191444,tool,1.3298112563316,0,1,1
13,3,animal,0,0,animals,2,shark.jpg,110,(unused),108.589650898852,115.128068546135,6.49966702120274,animal,0.920837254687285,0,2,1
14,3,tool,0,0,animals,2,magnifyingglass.jpg,74,(unused),117.680368190986,122.667607478559,4.93919387987275,tool,0.494578591267782,0,1,1
15,3,tool,0,0,animals,2,fishingpole.jpg,120,(unused),125.21981122402,129.739998365743,4.47528741862594,tool,1.14334371827499,0,1,1
16,3,tool,0,0,animals,2,shoehorn.jpg,102,(unused),132.292240278521,138.096811439877,5.75825557551243,tool,0.653870039128378,0,1,1
17,3,animal,0,0,animals,2,caiman.jpg,64,(unused),140.648939812911,148.471872659926,7.78059214058975,animal,0.551183605432016,0,2,1
18,3,animal,0,0,animals,2,gerbil.jpg,90,(unused),151.040703242275,157.946174029685,6.84607772449562,animal,0.957222893386643,0,2,1
19,3,animal,0,0,animals,2,pelican.jpg,92,(unused),160.498357568924,166.519778412961,5.96972395746927,animal,1.06281421253516,0,2,1
20,3,tool,0,0,animals,2,mallet.jpg,82,(unused),169.071980554758,176.26107297771,7.13809936654729,tool,0.875892194777407,0,1,1
21,3,tool,0,0,animals,2,paintgun.jpg,94,(unused),178.813205199551,185.935506425622,7.0734329894439,tool,0.585841772222921,0,1,1
22,3,animal,0,0,animals,2,cow.jpg,80,(unused),188.48770439788,196.41067153133,7.87868306153646,animal,0.862978171622672,0,2,1
23,3,animal,0,0,animals,2,wasp.jpg,104,(unused),198.979525527238,206.468851027401,7.4389135012489,animal,1.07522757032348,0,2,1
24,3,animal,0,0,animals,2,stinkbug.jpg,62,(unused),209.021020454353,213.84145863437,4.77276230122675,animal,0.701787017842435,0,2,1
25,3,tool,0,0,animals,2,hoe.jpg,91,(unused),216.37688447736,224.299906456285,7.87636667612527,tool,0.824695392871945,0,1,1
26,3,tool,0,0,animals,2,eraser.jpg,117,(unused),226.852102824871,232.639994228279,5.73312878697253,tool,1.09491645218804,0,1,1
27,3,animal,0,0,animals,2,starfish.jpg,105,(unused),235.19219540787,239.362096086255,4.11847025434101,animal,1.09604511420548,0,2,1
28,3,animal,0,0,animals,2,ant.jpg,112,(unused),241.914272890086,246.951494360901,4.9995682523442,animal,0.560965984379436,0,2,1
29,3,tool,0,0,animals,2,tubeflaring.jpg,109,(unused),249.503776044663,257.209746599381,7.64884211121954,tool,0.725060099208349,0,1,1
30,3,animal,0,0,animals,2,prayingmantis.jpg,96,(unused),259.778816769829,263.831906862973,4.0025237902271,animal,0.614146524440002,0,2,1
31,3,animal,0,0,animals,2,kangaroo.jpg,115,(unused),266.400799346929,271.588135111213,5.14739881530334,animal,0.630105593681947,0,2,1
32,3,animal,0,0,animals,2,catfish.jpg,87,(unused),274.157114514013,281.095942251452,6.89814600267681,animal,0.539616984700842,0,2,1
33,3,tool,0,0,animals,2,electricsander.jpg,103,(unused),283.648098849057,289.169128879033,5.47500339069066,tool,1.04380079592374,0,1,1
34,3,tool,0,0,animals,2,thermometer.jpg,79,(unused),291.737945028364,298.910349354292,7.12525274562146,tool,0.542888468811725,0,1,1
35,3,tool,0,0,animals,2,pliers2.jpg,70,(unused),301.462524875189,309.051874077571,7.52951021748125,tool,0.627656791606569,0,1,1
36,3,animal,0,0,animals,2,turtle.jpg,78,(unused),311.620750204109,316.90815072453,5.25261063346731,animal,0.926690645374038,0,2,1
37,3,animal,0,0,animals,2,ram.jpg,97,(unused),319.460448765714,324.664536773767,5.15279872599579,animal,0.715608396734751,0,2,1
38,3,tool,0,0,animals,2,airhorn.jpg,89,(unused),327.233391090411,334.205621001334,6.92178712722944,tool,0.55278599117446,0,1,1
39,3,animal,0,0,animals,2,macaw.jpg,81,(unused),336.741102651997,341.294642253471,4.50105788388881,animal,0.75400952623022,0,2,1
40,3,animal,0,0,animals,2,rooster.jpg,106,(unused),343.846804945018,350.268435099892,6.36631879225324,animal,0.61561869228899,0,2,1
41,3,tool,0,0,animals,2,padlock.jpg,84,(unused),352.83746261275,360.443486762078,7.54738379426012,tool,1.02484126257696,0,1,1
42,3,animal,0,0,animals,2,hedgehog.jpg,108,(unused),362.995681847731,370.818440857061,7.77975581706931,animal,0.538301014181343,0,2,1
43,3,tool,0,0,animals,2,carjack.jpg,88,(unused),373.37072574816,381.227004640257,7.80109971699582,tool,0.634138178946159,0,1,1
44,3,tool,0,0,animals,2,hammer.jpg,63,(unused),383.795872427718,391.368562719845,7.51722011854988,tool,0.622922761660448,0,1,1
45,3,tool,0,0,animals,2,burnisher.jpg,95,(unused),393.920731184598,401.409899204495,7.44602626881363,tool,0.793905274935241,0,1,1
46,3,animal,0,0,animals,2,manatee.jpg,65,(unused),403.962190831002,410.700933958879,6.69479209370553,animal,0.84211989456162,0,2,1
47,3,animal,0,0,animals,2,seal.jpg,107,(unused),413.253052068436,420.308484800791,7.01256402068985,animal,0.530886291668139,0,2,1
48,3,animal,0,0,animals,2,cheetah.jpg,67,(unused),422.860830310567,429.699416246842,6.79247746163745,animal,0.555291563119681,0,2,1
49,3,tool,0,0,animals,2,level.jpg,100,(unused),432.251752455339,439.84104905739,7.54970078801362,tool,0.699008822219184,0,1,1
50,3,animal,0,0,animals,2,flea.jpg,77,(unused),442.410002801489,446.529719555112,4.06876364890291,animal,0.572572696826683,0,2,1
51,3,animal,0,0,animals,2,malaysianjunglenymph.jpg,85,(unused),449.082083346713,455.337005406809,6.20210553289826,animal,0.593649393562373,0,2,1
52,3,animal,0,0,animals,2,baldeagle.jpg,71,(unused),457.889212359611,465.111583473563,7.17389362033197,animal,0.556346456378378,0,2,1
53,3,tool,0,0,animals,2,curlingiron.jpg,99,(unused),467.663801972778,471.800355002413,4.08138922365763,tool,0.526801747539139,0,1,1
54,3,tool,0,0,animals,2,gardenhose.jpg,114,(unused),474.352535975782,480.257196589775,5.8497708755539,tool,1.0243409179493,0,1,1
55,3,tool,0,0,animals,2,keys.jpg,72,(unused),482.809396807168,489.064321753869,6.20536539843909,tool,0.618434734493349,0,1,1
56,3,animal,0,0,animals,2,dragonfly.jpg,68,(unused),491.633173825378,496.920663830513,5.24172370595412,animal,0.486342790394701,0,2,1
57,3,animal,0,0,animals,2,orangutan.jpg,73,(unused),499.456183648488,504.126410673451,4.62369849251835,animal,0.547941628825356,0,2,1
58,3,tool,0,0,animals,2,lighterbic.jpg,69,(unused),506.695346456463,510.831984801271,4.09621702752973,tool,0.76153233601508,0,1,1
59,3,tool,0,0,animals,2,stopwatch.jpg,111,(unused),513.384143644011,518.57155189412,5.12848383889784,tool,0.527290545753203,0,1,1
60,3,tool,0,0,animals,2,generator.jpg,66,(unused),521.123748904172,525.343526885868,4.16571187405547,tool,0.560488091112347,0,1,1
