trial,phase,object,toShock,seenBefore,shockedCategory,responseSide,filename,num,name,onsetFixationCross,onsetStimulus,interTrialTime,response,reactionTime,wasShocked,buttonPressed,isResponseCorrect
1,2,animal,1,0,animals,1,frog.jpg,5,(unused),0.0317703610771787,6.55342996300533,6.40838471727235,0,3.07880326829172,1,2,0
2,2,tool,0,0,animals,1,blower.jpg,27,(unused),11.1407704611465,18.8970623331911,7.70503511646286,0,1.0496580160775,0,2,1
3,2,tool,0,0,animals,1,nailgun.jpg,25,(unused),23.2673805543136,32.3746759441874,9.05836003233514,0,0.884508322315924,0,2,1
4,2,tool,0,0,animals,1,monkeywrench.jpg,16,(unused),36.7283034007019,45.0016260171869,8.22658071384055,0,0.776065660876611,0,2,1
5,2,animal,0,0,animals,1,heckcattle.jpg,37,(unused),49.3553201867248,57.5451498504144,8.14647154762641,1,0.614008179909433,0,1,0
6,2,animal,1,0,animals,1,mountainsheep.jpg,7,(unused),61.915577121672,71.2063573818018,9.23911143446056,1,1.04348449550298,1,1,1
7,2,tool,0,0,animals,1,sawblade.jpg,34,(unused),75.7768849150361,83.6665293859378,7.83508588111135,0,1.15383072326631,0,2,1
8,2,animal,1,0,animals,1,emu.jpg,26,(unused),88.0368851331364,94.2418410127348,6.1623950326382,1,1.49988144055988,1,1,1
9,2,animal,0,0,animals,1,herculesbeetle.jpg,28,(unused),98.8123377553434,105.400973704939,6.55077009223747,1,1.61730277692413,0,1,0
10,2,animal,0,0,animals,1,quail.jpg,47,(unused),109.771278134427,116.35985474792,6.52547719849593,1,1.45777076878539,0,1,0
11,2,tool,0,0,animals,1,blender.jpg,24,(unused),120.713552766287,127.802532223807,7.04264726980644,0,0.878528846834342,0,2,1
12,2,animal,1,0,animals,1,rhino.jpg,35,(unused),132.156177000049,139.778968093347,7.56938773877724,1,1.1795537256603,1,1,1
13,2,tool,0,0,animals,1,italiangardeningtool.jpg,2,(unused),144.332799088731,151.038145624401,6.6549202654975,0,0.946946901431602,0,2,1
14,2,animal,1,0,animals,1,yak.jpg,53,(unused),155.391862245438,163.981900130737,8.54807598021099,1,1.05864695454511,1,1,1
15,2,animal,1,0,animals,1,mahimahi.jpg,39,(unused),168.535895984267,178.160320584437,9.57635045079033,0,2.49492222531035,1,2,0
16,2,tool,0,0,animals,1,woodchipper.jpg,13,(unused),182.714125600231,191.954882639096,9.19239436579004,0,0.957859933307191,0,2,1
17,2,tool,0,0,animals,1,bucket.jpg,22,(unused),196.308569110978,203.981375407147,7.63154059899983,0,0.778851250350726,0,2,1
18,2,tool,0,0,animals,1,abacus.jpg,12,(unused),208.351690420913,217.475691970708,9.07260215914252,0,0.826057450043209,0,2,1
19,2,animal,0,0,animals,1,squirel.jpg,46,(unused),221.829361764334,228.401274555017,6.52318574191125,1,1.6129936929201,0,1,0
20,2,tool,0,0,animals,1,hourglass.jpg,10,(unused),232.754974818533,240.277636719495,7.48105383997775,0,1.09600175749802,0,2,1
21,2,animal,0,0,animals,1,caterpillarpeacockmoth.jpg,1,(unused),244.631243007454,251.286621809134,6.6091644301592,1,1.86350622855343,0,1,0
22,2,animal,0,0,animals,1,flounder.jpg,29,(unused),255.640247661971,264.730921566145,9.03083646346073,1,2.30876274012917,0,1,0
23,2,tool,0,0,animals,1,anvil.jpg,6,(unused),269.084597774485,275.639853477807,6.51110033503348,0,0.926220319627191,0,2,1
24,2,tool,0,0,animals,1,spraybottle.jpg,49,(unused),279.993491197863,288.467064501364,8.42757736696399,0,1.11062666352245,0,2,1
25,2,animal,1,0,animals,1,chinchilla.jpg,19,(unused),292.820666299024,299.575929571708,6.71003954816196,0,1.95116168914274,1,2,0
26,2,animal,1,0,animals,1,firebug.jpg,15,(unused),304.129890144311,311.919400932577,7.74638174588818,0,2.16520785968714,1,2,0
27,2,tool,0,0,animals,1,kettle.jpg,58,(unused),316.489940012296,326.431268794604,9.89214063845439,0,0.873943609400158,0,2,1
28,2,tool,0,0,animals,1,television.jpg,54,(unused),330.784962322671,339.758643714099,8.91293753205775,0,0.725104608453421,0,2,1
29,2,animal,1,0,animals,1,porcupine.jpg,60,(unused),344.112508515025,353.920388157032,9.75165695562129,0,1.61793975800629,1,2,0
30,2,animal,1,0,animals,1,phasmagigas.jpg,36,(unused),358.490880088606,367.915138034512,9.36522839275896,1,2.83985678239969,1,1,1
31,2,tool,0,0,animals,1,viceclamp.jpg,4,(unused),372.468962294446,379.841508024941,7.31734767019622,0,0.904806080501658,0,2,1
32,2,animal,0,0,animals,1,leopard.jpg,50,(unused),384.195186478431,391.350893071986,7.10160084789918,1,2.22294669872645,0,1,0
33,2,animal,1,0,animals,1,rat.jpg,48,(unused),395.704582751225,402.059626897285,6.30072309137819,0,1.56268822424818,1,2,0
34,2,tool,0,0,animals,1,plunger.jpg,30,(unused),406.613461741498,416.154521362414,9.47845432480805,0,1.37628914950619,0,2,1
35,2,tool,0,0,animals,1,electricbreaker.jpg,41,(unused),420.508139838329,427.580412173721,7.02536482079551,0,0.654895565759489,0,2,1
36,2,tool,0,0,animals,1,flashlight.jpg,51,(unused),431.934150604785,440.290842690824,8.30896468395274,0,0.795989120511877,0,2,1
37,2,animal,1,0,animals,1,beta.jpg,17,(unused),444.644509277093,454.38567332955,9.69229088601287,1,1.66078363156976,1,1,1
38,2,tool,0,0,animals,1,compass.jpg,32,(unused),458.939445951038,467.879988930904,8.88934817403051,0,0.883981995047634,0,2,1
39,2,tool,0,0,animals,1,workbench.jpg,11,(unused),472.216963790357,482.074916046925,9.81176331006688,0,0.825621570239491,0,2,1
40,2,animal,0,0,animals,1,cockatiel.jpg,20,(unused),486.428555691396,493.68428050274,7.21977623612643,1,1.7867737426468,0,1,0
41,2,animal,1,0,animals,1,panda.jpg,18,(unused),498.038037857209,504.576618511971,6.49518983263536,1,1.80988050401174,1,1,1
42,2,animal,0,0,animals,1,racoon.jpg,23,(unused),509.130509580135,517.970894406247,8.78641350290333,1,1.71214656581333,0,1,0
43,2,tool,0,0,animals,1,spoon.jpg,44,(unused),522.324552332652,529.113290147903,6.74664198081655,0,0.73608723997404,0,2,1
44,2,tool,0,0,animals,1,loom.jpg,14,(unused),533.450307985939,540.522469026047,7.01352564104252,0,0.777373621023798,0,2,1
45,2,tool,0,0,animals,1,pressuregauge.jpg,38,(unused),544.892958520029,552.865910558496,7.92738640525165,0,0.940436929117368,0,2,1
46,2,animal,1,0,animals,1,ferret.jpg,21,(unused),557.219680100922,565.543176042974,8.26823384173535,1,1.52078955876505,1,1,1
47,2,animal,0,0,animals,1,salamander.jpg,9,(unused),570.096858858469,577.319276551276,7.18179882255566,0,1.70709850677758,0,2,1
48,2,animal,1,0,animals,1,hippo.jpg,45,(unused),581.672976494056,591.597615153227,9.87566569143058,1,1.60541567075597,1,1,1
49,2,tool,0,0,animals,1,clamp.jpg,31,(unused),596.151439092426,606.176107195134,9.98238827491945,0,0.817476487374279,0,2,1
50,2,tool,0,0,animals,1,floorbuffer.jpg,56,(unused),610.529834079712,617.78565831912,7.21209197617571,0,1.05236310089276,0,2,1
51,2,tool,0,0,animals,1,shovel.jpg,52,(unused),622.139312396696,629.228307570266,7.04104898483578,0,1.00822698323191,0,2,1
52,2,animal,1,0,animals,1,armadillo.jpg,57,(unused),633.581986023755,640.73761981031,7.11099220404284,1,1.61941642512602,1,1,1
53,2,tool,0,0,animals,1,edger.jpg,40,(unused),645.291544139779,653.331151148753,7.99268881320899,0,0.789357589370866,0,2,1
54,2,tool,0,0,animals,1,scale.jpg,43,(unused),657.701646095241,666.608754945237,8.86273498594873,0,0.931221551251838,0,2,1
55,2,animal,1,0,animals,1,seahorse.jpg,42,(unused),670.979123521863,677.167418786008,6.13490857139964,1,1.98110845984775,1,1,1
56,2,tool,0,0,animals,1,vegetablepeeler.jpg,3,(unused),681.737942149679,688.143035175859,6.3493408747582,0,1.22281712150743,0,2,1
57,2,animal,1,0,animals,1,tragopan.jpg,55,(unused),692.496704007277,699.18539762515,6.64263426921712,0,1.82900950134081,1,2,0
58,2,animal,1,0,animals,1,cat.jpg,8,(unused),703.755909763071,709.944070959698,6.14919390314919,1,1.85169577821489,1,1,1
59,2,animal,1,0,animals,1,partridge.jpg,33,(unused),714.481212794152,722.62117832148,8.0886361672911,0,2.13619186395636,1,2,0
60,2,tool,0,0,animals,1,washboard.jpg,59,(unused),727.175000336265,735.898689746085,8.67071083788338,0,0.82009369061052,0,2,1
