trial,phase,object,toShock,seenBefore,shockedCategory,responseSide,filename,num,name,onsetFixationCross,onsetStimulus,interTrialTime,response,reactionTime,wasShocked,buttonPressed,isResponseCorrect
1,3,tool,0,0,animals,1,stove.jpg,101,(unused),0.0184477904085725,7.82439776701085,7.73679392090236,tool,0.737492900982033,0,2,1
2,3,tool,0,0,animals,1,reflexhammer.jpg,93,(unused),10.3934385292514,17.0320250473806,6.5957675595632,tool,0.731288006023533,0,2,1
3,3,animal,0,0,animals,1,caiman.jpg,64,(unused),19.5841686483936,27.5905063266937,7.94570949868256,animal,0.909046090812808,0,1,1
4,3,tool,0,0,animals,1,hammer.jpg,63,(unused),30.1426932266222,34.3291354701987,4.14322816649952,tool,1.50771453690504,0,2,1
5,3,animal,0,0,animals,1,catfish.jpg,87,(unused),36.8814535498059,42.6691971342689,5.74604874689443,animal,0.709838364747156,0,1,1
6,3,animal,0,0,animals,1,prayingmantis.jpg,96,(unused),45.2215591542572,51.9434912737452,6.66575242383016,animal,0.716835148759856,0,1,1
7,3,animal,0,0,animals,1,dragonfly.jpg,68,(unused),54.4956852297937,59.3494728104461,4.80475714248456,animal,0.614076558817032,0,1,1
8,3,tool,0,0,animals,1,tubeflaring.jpg,109,(unused),61.9016112797362,67.1724844841547,5.21862043783328,tool,0.675301866807786,0,2,1
9,3,animal,0,0,animals,1,kangaroo.jpg,115,(unused),69.7246393108126,77.5975207510055,7.81836457476248,animal,0.808595172699825,0,1,1
10,3,animal,0,0,animals,1,flea.jpg,77,(unused),80.1497021984787,87.7223422231618,7.5239894846226,animal,0.846121220204623,0,1,1
11,3,animal,0,0,animals,1,shark.jpg,110,(unused),90.2745156523179,94.3944036139683,4.07560577793569,animal,0.729303312029515,0,1,1
12,3,tool,0,0,animals,1,generator.jpg,66,(unused),96.9465937212244,102.951151332997,5.93902394884011,tool,0.659833249060284,0,2,1
13,3,tool,0,0,animals,1,shoehorn.jpg,102,(unused),105.520165795156,111.19127685495,5.61986884631069,tool,0.848960346131207,0,2,1
14,3,tool,0,0,animals,1,pliers2.jpg,70,(unused),113.760142497132,121.366206077259,7.55858796130674,tool,0.596308287555985,0,2,1
15,3,animal,0,0,animals,1,pelican.jpg,92,(unused),123.918350961204,130.540203891786,6.57130432697829,animal,0.674623517132204,0,1,1
16,3,tool,0,0,animals,1,keys.jpg,72,(unused),133.0924161296,140.965330925994,7.8286476766566,tool,0.605845916077669,0,2,1
17,3,animal,0,0,animals,1,seal.jpg,107,(unused),143.517480620929,151.223578808115,7.65786370913841,animal,0.68293594671195,0,1,1
18,3,animal,0,0,animals,1,baboon.jpg,113,(unused),153.792426489266,161.265000154352,7.42486486960157,animal,0.657865874632989,0,1,1
19,3,tool,0,0,animals,1,mixer.jpg,116,(unused),163.817185129886,168.487346500133,4.62549250439857,tool,0.60162122485508,0,2,1
20,3,animal,0,0,animals,1,baldeagle.jpg,71,(unused),171.039690238355,176.59396863627,5.51398534265506,animal,0.736317415609847,0,1,1
21,3,animal,0,0,animals,1,stinkbug.jpg,62,(unused),179.146241813298,187.119192499682,7.92051565531375,animal,0.735303579520405,0,1,1
22,3,tool,0,0,animals,1,thermometer.jpg,79,(unused),189.671304348158,196.726938643593,7.01137969041011,tool,0.801990003322317,0,2,1
23,3,animal,0,0,animals,1,cheetah.jpg,67,(unused),199.262432689029,205.934233644877,6.63335792158192,animal,0.729990000756516,0,1,1
24,3,tool,0,0,animals,1,magnifyingglass.jpg,74,(unused),208.503170168988,214.958295012591,6.40615430599376,tool,0.735202548718007,0,2,1
25,3,tool,0,0,animals,1,burnisher.jpg,95,(unused),217.52719946343,223.698720579991,6.11170259988195,tool,1.00905471852275,0,2,1
26,3,animal,0,0,animals,1,orangutan.jpg,73,(unused),226.250869954193,231.705163137885,5.40090197614018,animal,0.819741917214742,0,1,1
27,3,tool,0,0,animals,1,clippers.jpg,61,(unused),234.257299041314,240.645697690259,6.33735674499622,tool,0.681598170588586,0,2,1
28,3,tool,0,0,animals,1,wrench.jpg,118,(unused),243.19789774023,250.48699786368,7.24631799869636,tool,0.527615039204647,0,2,1
29,3,tool,0,0,animals,1,curlingiron.jpg,99,(unused),253.03916712331,257.892940591723,4.81765105823487,tool,0.663906233711714,0,2,1
30,3,animal,0,0,animals,1,cow.jpg,80,(unused),260.461825157135,266.649894477737,6.14741468931959,animal,0.5681495595054,0,1,1
31,3,tool,0,0,animals,1,gardenhose.jpg,114,(unused),269.202158994981,275.857424255363,6.6027511507527,tool,0.665019817672146,0,2,1
32,3,tool,0,0,animals,1,airhorn.jpg,89,(unused),278.426333517194,282.646268273746,4.16198461249014,tool,0.677385346476513,0,2,1
33,3,animal,0,0,animals,1,gerbil.jpg,90,(unused),285.198433363851,290.736123786869,5.48796996869937,animal,0.674719416210792,0,1,1
34,3,tool,0,0,animals,1,mallet.jpg,82,(unused),293.288281820855,299.826618199544,6.48579628134155,tool,0.675536001685032,0,2,1
35,3,tool,0,0,animals,1,avocadoslicer.jpg,76,(unused),302.378964182896,306.69901308822,4.28067085549298,tool,0.639406103655347,0,2,1
36,3,animal,0,0,animals,1,wasp.jpg,104,(unused),309.251155727035,316.40685189181,7.1065811229274,animal,0.582833344317805,0,1,1
37,3,tool,0,0,animals,1,electricsander.jpg,103,(unused),318.95898555011,325.330720851972,6.32846024428804,tool,0.712238407597397,0,2,1
38,3,animal,0,0,animals,1,hedgehog.jpg,108,(unused),327.882856755401,332.686633447178,4.73810372236846,animal,0.598553416508366,0,1,1
39,3,animal,0,0,animals,1,manatee.jpg,65,(unused),335.255446168463,339.425376450794,4.12899843968066,animal,0.680951894183636,0,1,1
40,3,tool,0,0,animals,1,lighterbic.jpg,69,(unused),341.977533201849,346.481071685444,4.45067796910189,tool,0.777536700241399,0,2,1
41,3,animal,0,0,animals,1,macaw.jpg,81,(unused),349.033261471967,353.136471653564,4.05469471112853,animal,1.26937100587475,0,1,1
42,3,animal,0,0,animals,1,malaysianjunglenymph.jpg,85,(unused),355.688618141171,362.360566313331,6.62311113453466,animal,0.708559924175461,0,1,1
43,3,tool,0,0,animals,1,padlock.jpg,84,(unused),364.912731082703,369.149348109569,4.18819179423409,tool,0.7099782042078,0,2,1
44,3,tool,0,0,animals,1,paintgun.jpg,94,(unused),371.701522821656,376.355193719749,4.60572518696163,tool,0.70530480792695,0,2,1
45,3,animal,0,0,animals,1,starfish.jpg,105,(unused),378.907354640329,385.245675367263,6.28656902862186,animal,0.953165761317905,0,1,1
46,3,animal,0,0,animals,1,goldfish.jpg,98,(unused),387.797823779268,395.704095097969,7.85744056546334,animal,0.627021010157478,0,1,1
47,3,animal,0,0,animals,1,dolphin.jpg,86,(unused),398.256255056351,405.862315108419,7.5576721396888,animal,0.654169750911933,0,1,1
48,3,tool,0,0,animals,1,eraser.jpg,117,(unused),408.414437220341,415.70360469766,7.24007784904632,tool,0.7341165477701,0,2,1
49,3,tool,0,0,animals,1,carjack.jpg,88,(unused),418.255751506001,422.675704800904,4.38522968674097,tool,0.707330234974506,0,2,1
50,3,tool,0,0,animals,1,hoe.jpg,91,(unused),425.227993052368,430.115188472561,4.8488981535737,tool,0.596992089689593,0,2,1
51,3,animal,0,0,animals,1,rooster.jpg,106,(unused),432.667363505381,438.888985315974,6.17687312612249,animal,0.685455943594206,0,1,1
52,3,tool,0,0,animals,1,stopwatch.jpg,111,(unused),441.441127634058,447.195649724683,5.69937171562943,tool,0.701054137355641,0,2,1
53,3,animal,0,0,animals,1,turtle.jpg,78,(unused),449.747779854923,456.219479844114,6.4352441793366,animal,0.532583509575488,0,1,1
54,3,animal,0,0,animals,1,crow.jpg,75,(unused),458.771772265104,466.744734818599,7.92682331938663,animal,0.68065329203182,0,1,1
55,3,tool,0,0,animals,1,fishingpole.jpg,120,(unused),469.296922359993,473.767103359081,4.42250634657917,tool,0.639446515976488,0,2,1
56,3,animal,0,0,animals,1,ram.jpg,97,(unused),476.319231564926,481.139513482561,4.77252709031038,animal,0.609331318410113,0,1,1
57,3,tool,0,0,animals,1,level.jpg,100,(unused),483.708553924069,488.995920166502,5.24113324713857,tool,0.620126860610071,0,2,1
58,3,animal,0,0,animals,1,ant.jpg,112,(unused),491.548189815469,498.753791668792,7.16867994781555,animal,0.644510243962031,0,1,1
59,3,tool,0,0,animals,1,ducttape.jpg,83,(unused),501.306101409347,505.926369920356,4.58236432047536,tool,0.592260961520878,0,2,1
60,3,animal,0,0,animals,1,seaslug.jpg,119,(unused),508.478533086064,516.267891559711,7.73737633607413,animal,0.572045178969347,0,1,1
