trial,phase,object,toShock,seenBefore,shockedCategory,responseSide,filename,num,name,onsetFixationCross,onsetStimulus,interTrialTime,response,reactionTime,wasShocked,buttonPressed,isResponseCorrect
1,3,animal,0,0,animals,2,elephantafrican.jpg,153,(unused),0.0183743452034832,7.50743752024573,7.4192991842771,animal,1.21565950043441,0,2,1
2,3,tool,0,0,animals,2,faxmachine.jpg,174,(unused),10.0764818105454,17.0653206330571,6.93500051927779,tool,1.2758863675117,0,1,1
3,3,tool,0,0,animals,2,caulkinggun.jpg,156,(unused),19.6174979110074,24.5380043094628,4.86082724610387,tool,1.05636503541609,0,1,1
4,3,tool,0,0,animals,2,drill.jpg,124,(unused),27.0901649093103,32.0106982493162,4.8664043599793,tool,0.795897041491116,0,1,1
5,3,animal,0,0,animals,2,crab.jpg,143,(unused),34.5628736028666,40.2840475102348,5.6735122839387,animal,1.01686231223721,0,2,1
6,3,tool,0,0,animals,2,typewriter.jpg,136,(unused),42.8362228637852,50.4255515734367,7.54302252912631,tool,1.3877008454474,0,1,1
7,3,tool,0,0,animals,2,carpetblower.jpg,168,(unused),52.9777439258214,58.0483814558465,5.0189555465993,tool,1.04903372719127,0,1,1
8,3,animal,0,0,animals,2,gecko.jpg,122,(unused),60.6005449422883,66.5051073971263,5.86568815662218,animal,0.945568242357695,0,2,1
9,3,tool,0,0,animals,2,pencil.jpg,161,(unused),69.0573911583342,76.3465047525569,7.23877683664589,tool,1.28155435591543,0,1,1
10,3,tool,0,0,animals,2,glove.jpg,150,(unused),78.8986615036119,84.4863644191682,5.53415899637118,tool,0.93187776673949,0,1,1
11,3,animal,0,0,animals,2,chimp.jpg,141,(unused),87.0552499467776,93.1433648434977,6.04132471242904,animal,1.06619613436487,0,2,1
12,3,tool,0,0,animals,2,electricdrill.jpg,157,(unused),95.7122275990841,101.583522695306,5.8255989307785,tool,0.882317828050873,0,1,1
13,3,animal,0,0,animals,2,prairiedog.jpg,152,(unused),104.135695482997,110.407311825096,6.22330867168655,animal,0.869742540060543,0,2,1
14,3,animal,0,0,animals,2,otter.jpg,146,(unused),112.959456388307,118.563914701237,5.56258792686329,animal,0.743461413348996,0,2,1
15,3,animal,0,0,animals,2,beetle.jpg,125,(unused),121.116056057119,128.505203937671,7.33948296524068,animal,1.58253730544311,0,2,1
16,3,tool,0,0,animals,2,telephone.jpg,138,(unused),131.074066693258,136.078005290907,4.94868546684674,tool,1.04285224571868,0,1,1
17,3,tool,0,0,animals,2,measuringdevice.jpg,145,(unused),138.630168135882,144.835029738115,6.15798303372585,tool,0.58808983007475,0,1,1
18,3,tool,0,0,animals,2,dremel.jpg,165,(unused),147.387173339128,154.62629079818,7.18788708496003,tool,1.08715537533499,0,1,1
19,3,animal,0,0,animals,2,earthworm.jpg,137,(unused),157.161764316726,164.01722836724,6.80521043624344,animal,1.33851680549196,0,2,1
20,3,animal,0,0,animals,2,springhare.jpg,169,(unused),166.569379024371,171.573281379224,4.95217871930595,animal,1.18776762199923,0,2,1
21,3,tool,0,0,animals,2,crutches.jpg,121,(unused),174.12546058157,179.546394356359,5.36916859956453,tool,0.886816745736724,0,1,1
22,3,tool,0,0,animals,2,binoculars.jpg,144,(unused),182.081903796967,189.471050073851,7.3438541837088,tool,1.1197103866034,0,1,1
23,3,animal,0,0,animals,2,fly.jpg,147,(unused),192.023241464038,196.41002137501,4.34419457642195,animal,0.848729736728274,0,2,1
24,3,animal,0,0,animals,2,bluejay.jpg,139,(unused),198.962157278438,205.750693393424,6.743885799593,animal,0.65562747848162,0,2,1
25,3,animal,0,0,animals,2,sparrow.jpg,172,(unused),208.303038093844,215.158453713721,6.80276713212653,animal,0.640931826557789,0,2,1
26,3,tool,0,0,animals,2,wateringcan.jpg,123,(unused),217.710613992833,224.215748442381,6.46264305037285,tool,0.634863563733234,0,1,1
27,3,animal,0,0,animals,2,angelfish.jpg,132,(unused),226.784613443098,230.904313455383,4.07993556905952,animal,0.60957026169126,0,2,1
28,3,tool,0,0,animals,2,pruner.jpg,135,(unused),233.456657514336,240.412149115789,6.90447119263512,tool,1.12605961128065,0,1,1
29,3,animal,0,0,animals,2,giraffe.jpg,171,(unused),242.96430618758,247.301045060798,4.28594473470371,animal,0.74028872541021,0,2,1
30,3,tool,0,0,animals,2,ladder.jpg,158,(unused),249.853210471636,254.239948687355,4.34405354433466,tool,0.885635807913786,0,1,1
31,3,animal,0,0,animals,2,lobsterspiny.jpg,155,(unused),256.792129493366,264.164634232991,7.32025262491976,animal,1.25725628746295,0,2,1
32,3,tool,0,0,animals,2,saw.jpg,163,(unused),266.716823057319,272.170930857505,5.4049664232848,tool,1.19727349797904,0,1,1
33,3,tool,0,0,animals,2,camera.jpg,133,(unused),274.723225844355,279.12669860982,4.35171077063623,tool,1.00577201667693,0,1,1
34,3,tool,0,0,animals,2,hairbrush.jpg,131,(unused),281.678861134063,288.200628140352,6.4844418139689,tool,0.526053389068693,0,1,1
35,3,animal,0,0,animals,2,deer.jpg,142,(unused),290.752844868424,295.706715486773,4.9086667026151,animal,0.779210601656814,0,2,1
36,3,animal,0,0,animals,2,highlandcow.jpg,178,(unused),298.275604542443,304.980908274716,6.6556996396585,animal,0.785249357068096,0,2,1
37,3,animal,0,0,animals,2,mink.jpg,134,(unused),307.549739919228,315.489185904797,7.88936732466838,animal,0.699358100209793,0,2,1
38,3,tool,0,0,animals,2,ruler.jpg,166,(unused),318.058250401256,325.363893917758,7.26009885799852,tool,1.27498254273814,0,1,1
39,3,animal,0,0,animals,2,dog.jpg,130,(unused),327.91617383017,335.121896920456,7.16056328886645,animal,0.683202473006531,0,2,1
40,3,tool,0,0,animals,2,beadingtool.jpg,154,(unused),337.67405463371,344.629374322431,6.89788210037475,tool,2.11731130595217,0,1,1
41,3,animal,0,0,animals,2,duck.jpg,149,(unused),347.198385897995,353.436466107472,6.19053717781046,animal,1.08228665283241,0,2,1
42,3,animal,0,0,animals,2,lemur.jpg,127,(unused),355.988805996902,360.859221644041,4.83366027194762,animal,0.903696587400191,0,2,1
43,3,animal,0,0,animals,2,brown_bear.jpg,129,(unused),363.411469162453,370.400160768651,6.94886575777217,animal,1.58806673732033,0,2,1
44,3,tool,0,0,animals,2,smartphone.jpg,176,(unused),372.9524910361,380.758693429343,7.75526733230297,tool,1.46093663113788,0,1,1
45,3,tool,0,0,animals,2,lantern.jpg,140,(unused),383.327554581268,390.416459121912,7.03757722559076,tool,0.642433497097954,0,1,1
46,3,animal,0,0,animals,2,moth.jpg,159,(unused),392.968654681627,397.30534544494,4.29624666351043,animal,0.819702143773611,0,2,1
47,3,animal,0,0,animals,2,octopus.jpg,170,(unused),399.857539080258,407.680217191948,7.78767653975278,animal,1.02922784104157,0,2,1
48,3,animal,0,0,animals,2,penguin.jpg,164,(unused),410.23253815815,417.254798290978,6.96849108152086,animal,0.963943339902471,0,2,1
49,3,tool,0,0,animals,2,tape.jpg,126,(unused),419.823653028248,426.995797649193,7.12295490183563,animal,2.12029123353568,0,2,0
50,3,tool,0,0,animals,2,chainsaw.jpg,179,(unused),429.548129199571,435.619586201665,6.01899148683237,,2.50533790495683,0,,0
51,3,tool,0,0,animals,2,jumpercables.jpg,167,(unused),438.138366224252,442.708649504999,4.52312660503199,tool,0.693829951269436,0,1,1
52,3,animal,0,0,animals,2,aardvark.jpg,175,(unused),445.260795030412,450.1980083956,4.88314107222019,animal,0.603763396022259,0,2,1
53,3,animal,0,0,animals,2,stickinsect.jpg,162,(unused),452.750204276043,459.421951348795,6.62730219982163,animal,0.661039522190549,0,2,1
54,3,animal,0,0,animals,2,waterbuffalo.jpg,173,(unused),461.974298935813,469.396840864396,7.38378905531258,animal,0.460453607680392,0,2,1
55,3,tool,0,0,animals,2,corkscrew.jpg,151,(unused),471.948969070239,477.553397875759,5.55583512349408,tool,0.9451769484549,0,1,1
56,3,tool,0,0,animals,2,wheeldolly.jpg,148,(unused),480.105613000167,487.111122546616,6.9570225006956,tool,0.666734772872587,0,1,1
57,3,tool,0,0,animals,2,oven.jpg,128,(unused),489.663301748958,495.017503555904,5.30228924495526,tool,0.849684878729022,0,1,1
58,3,animal,0,0,animals,2,shrimp.jpg,177,(unused),497.586367273689,504.408409693155,6.77015748920608,animal,0.743021688806039,0,2,1
59,3,tool,0,0,animals,2,magnet.jpg,180,(unused),506.960549445375,512.931982103855,5.92781125945305,tool,0.870764073730243,0,1,1
60,3,animal,0,0,animals,2,palmcockatoo.jpg,160,(unused),515.484137892712,522.673130923511,7.14653829807163,animal,0.608908269383392,0,2,1
