trial,phase,object,toShock,seenBefore,shockedCategory,responseSide,filename,num,name,onsetFixationCross,onsetStimulus,interTrialTime,response,reactionTime,wasShocked,buttonPressed,isResponseCorrect
1,3,tool,0,0,animals,2,saw.jpg,163,(unused),0.0183176321447718,5.78897921924454,5.70365944516541,tool,0.939804163925601,0,1,1
2,3,tool,0,0,animals,2,telephone.jpg,138,(unused),8.35774052310398,14.5120301283482,6.09599062240384,tool,0.930058669352547,0,1,1
3,3,animal,0,0,animals,2,mink.jpg,134,(unused),17.0641588221183,22.6181753546593,5.49065178717866,animal,0.82913979927207,0,2,1
4,3,tool,0,0,animals,2,electricdrill.jpg,157,(unused),25.1701911501546,32.1085759543034,6.87276559216264,tool,0.770235444958416,0,1,1
5,3,tool,0,0,animals,2,pruner.jpg,135,(unused),34.6437519457154,39.2471820005835,4.53788238672231,tool,0.853642894512632,0,1,1
6,3,animal,0,0,animals,2,gecko.jpg,122,(unused),41.7824663999982,47.8201474822563,5.97269120349641,animal,0.731080591182945,0,2,1
7,3,tool,0,0,animals,2,magnet.jpg,180,(unused),50.3888228294745,56.9936795080012,6.56091010424911,tool,0.949875844708458,0,1,1
8,3,tool,0,0,animals,2,typewriter.jpg,136,(unused),59.5622849352649,65.5832804863671,5.9591868250854,tool,1.03957480723102,0,1,1
9,3,animal,0,0,animals,2,aardvark.jpg,175,(unused),68.1352949989273,76.1911033104857,7.99387108689448,animal,1.37715123407088,0,2,1
10,3,tool,0,0,animals,2,dremel.jpg,165,(unused),78.7431309731287,85.1143757824543,6.30700249970739,tool,0.875081058170963,0,1,1
11,3,tool,0,0,animals,2,carpetblower.jpg,168,(unused),87.6663874084106,91.9194460055019,4.18528205797148,tool,1.01730947126725,0,1,1
12,3,tool,0,0,animals,2,binoculars.jpg,144,(unused),94.4714072762617,99.4082554450806,4.87448093154488,tool,0.949758135427146,0,1,1
13,3,animal,0,0,animals,2,highlandcow.jpg,178,(unused),101.976986920703,108.08136330046,6.03784776875357,animal,0.829960236168972,0,2,1
14,3,tool,0,0,animals,2,measuringdevice.jpg,145,(unused),110.650098832626,118.172238393593,7.46084875899366,tool,0.937348947175451,0,1,1
15,3,animal,0,0,animals,2,octopus.jpg,170,(unused),120.7241582897,126.361589007204,5.58246079330598,animal,0.94928922270492,0,2,1
16,3,animal,0,0,animals,2,elephantafrican.jpg,153,(unused),128.913563428047,133.366727803125,4.38832084653403,animal,0.919427949667806,0,2,1
17,3,tool,0,0,animals,2,glove.jpg,150,(unused),135.918710563045,140.705546110991,4.73036664491286,tool,0.825906482477876,0,1,1
18,3,tool,0,0,animals,2,corkscrew.jpg,151,(unused),143.257472421774,148.99495506607,5.67424794937459,tool,0.928878689936937,0,1,1
19,3,tool,0,0,animals,2,oven.jpg,128,(unused),151.546936543055,157.401135156138,5.80009336120725,tool,0.787876441914705,0,1,1
20,3,animal,0,0,animals,2,otter.jpg,146,(unused),159.953163780983,167.358516698745,7.34017841889534,animal,0.822838985025101,0,2,1
21,3,tool,0,0,animals,2,camera.jpg,133,(unused),169.910503307471,175.481252839761,5.50994202817346,tool,0.874465570131633,0,1,1
22,3,animal,0,0,animals,2,lobsterspiny.jpg,155,(unused),178.033184282283,182.403005996021,4.32331949023688,animal,0.768816839643932,0,2,1
23,3,animal,0,0,animals,2,penguin.jpg,164,(unused),184.954949305692,190.075333826953,5.06233605842587,animal,0.936696895490059,0,2,1
24,3,animal,0,0,animals,2,duck.jpg,149,(unused),192.610637149659,197.747651394406,5.08150045458783,animal,0.794753935419067,0,2,1
25,3,tool,0,0,animals,2,ladder.jpg,158,(unused),200.316337005104,206.687528893363,6.3058474373509,tool,1.12315032126298,0,1,1
26,3,animal,0,0,animals,2,palmcockatoo.jpg,160,(unused),209.239592798918,215.477435787567,6.1874287366384,animal,0.896609668742713,0,2,1
27,3,tool,0,0,animals,2,jumpercables.jpg,167,(unused),218.029418547487,225.267996337125,7.16135582351674,tool,0.990369120365358,0,1,1
28,3,animal,0,0,animals,2,chimp.jpg,141,(unused),227.820020150963,235.492212311525,7.60964412131731,animal,0.901645509134141,0,2,1
29,3,tool,0,0,animals,2,drill.jpg,124,(unused),238.044241577837,242.263946752972,4.14774495805063,tool,0.828922662532477,0,1,1
30,3,animal,0,0,animals,2,moth.jpg,159,(unused),244.815902250525,249.85290915047,4.96801883778895,animal,0.764402260499082,0,2,1
31,3,tool,0,0,animals,2,ruler.jpg,166,(unused),252.404848932069,259.643422231435,7.18144020756284,tool,0.87814053728016,0,1,1
32,3,tool,0,0,animals,2,pencil.jpg,161,(unused),262.212109766535,268.616747127332,6.34985409104619,tool,0.949045785799171,0,1,1
33,3,tool,0,0,animals,2,lantern.jpg,140,(unused),271.168720585974,277.373192512311,6.1394186781586,tool,0.766966205986137,0,1,1
34,3,animal,0,0,animals,2,prairiedog.jpg,152,(unused),279.941886782819,284.261629772462,4.26967437088366,animal,0.653762271609594,0,2,1
35,3,animal,0,0,animals,2,fly.jpg,147,(unused),286.813607079909,293.234918104714,6.36410751652942,animal,0.950794105395289,0,2,1
36,3,animal,0,0,animals,2,dog.jpg,130,(unused),295.803624242371,300.857231037564,4.99190960796415,animal,0.783751164599835,0,2,1
37,3,tool,0,0,animals,2,crutches.jpg,121,(unused),303.409200968135,310.414207621756,6.95989465736653,tool,0.805091504468692,0,1,1
38,3,tool,0,0,animals,2,smartphone.jpg,176,(unused),312.966291412803,319.504392175155,6.48305022221544,tool,0.865222023855495,0,1,1
39,3,animal,0,0,animals,2,angelfish.jpg,132,(unused),322.072990225543,329.645129176378,7.50809388091989,animal,0.796847043781327,0,2,1
40,3,animal,0,0,animals,2,beetle.jpg,125,(unused),332.197147858477,338.284861799907,6.03604550798943,animal,0.907332118276372,0,2,1
41,3,tool,0,0,animals,2,hairbrush.jpg,131,(unused),340.83688946255,347.925301962057,7.02903049368836,tool,1.0923101688627,0,1,1
42,3,tool,0,0,animals,2,faxmachine.jpg,174,(unused),350.477392809246,357.399018634213,6.86051450336647,tool,0.807911716210583,0,1,1
43,3,animal,0,0,animals,2,deer.jpg,142,(unused),359.950980546441,367.573180901749,7.56054795330258,animal,0.734084904089741,0,2,1
44,3,animal,0,0,animals,2,sparrow.jpg,172,(unused),370.141880303998,377.013539661677,6.80820681085076,animal,0.834984530145903,0,2,1
45,3,animal,0,0,animals,2,lemur.jpg,127,(unused),379.565545193693,385.036102959282,5.40886902905978,animal,0.780773151859648,0,2,1
46,3,tool,0,0,animals,2,wateringcan.jpg,123,(unused),387.588097907084,393.475748407381,5.82871321084268,tool,0.853347178008335,0,1,1
47,3,animal,0,0,animals,2,crab.jpg,143,(unused),396.011021901849,402.532369137492,6.45518426820163,animal,0.869121183885909,0,2,1
48,3,tool,0,0,animals,2,chainsaw.jpg,179,(unused),405.084410270953,409.687711711593,4.53515596953993,tool,0.838949761325694,0,1,1
49,3,tool,0,0,animals,2,beadingtool.jpg,154,(unused),412.239681962897,420.095276729934,7.80643880171082,tool,0.912830456715255,0,1,1
50,3,animal,0,0,animals,2,bluejay.jpg,139,(unused),422.647351540436,429.435456231777,6.73035432360385,animal,0.794081356773859,0,2,1
51,3,animal,0,0,animals,2,brown_bear.jpg,129,(unused),431.987583001144,437.658345009977,5.59784126382436,animal,0.883310123639603,0,2,1
52,3,tool,0,0,animals,2,tape.jpg,126,(unused),440.227020036461,446.348160206405,6.04929682268393,tool,0.905827556319764,0,1,1
53,3,animal,0,0,animals,2,waterbuffalo.jpg,173,(unused),448.900081385448,455.888331946492,6.93797072707273,animal,0.966006506500435,0,2,1
54,3,animal,0,0,animals,2,stickinsect.jpg,162,(unused),458.44046737567,462.843691262893,4.34821709426536,animal,0.924889082993104,0,2,1
55,3,tool,0,0,animals,2,wheeldolly.jpg,148,(unused),465.395631365226,470.616101169588,5.14747387761324,tool,0.871679997633237,0,1,1
56,3,animal,0,0,animals,2,earthworm.jpg,137,(unused),473.168036460915,480.523348501163,7.29795798811541,animal,0.972847436359189,0,2,1
57,3,animal,0,0,animals,2,springhare.jpg,169,(unused),483.07538931389,489.012959133615,5.87526272991145,animal,0.858526707113469,0,2,1
58,3,tool,0,0,animals,2,caulkinggun.jpg,156,(unused),491.581659818798,499.470729886611,7.83579266972055,tool,0.817040439809261,0,1,1
59,3,animal,0,0,animals,2,shrimp.jpg,177,(unused),502.022715853869,507.009609069741,4.93468613815281,animal,0.874503416712287,0,2,1
60,3,animal,0,0,animals,2,giraffe.jpg,171,(unused),509.561621978632,514.081586210406,4.44943757493552,animal,0.949686611804282,0,2,1
