trial,phase,object,toShock,seenBefore,shockedCategory,responseSide,filename,num,name,onsetFixationCross,onsetStimulus,interTrialTime,response,reactionTime,wasShocked,buttonPressed,isResponseCorrect
1,1,tool,0,0,animals,1,wateringcan.jpg,123,(unused),0.0256654959332536,5.44642036662549,5.25663751894485,tool,2.15325562617977,0,2,1
2,1,tool,0,0,animals,1,dremel.jpg,165,(unused),8.04876391817015,14.9043331085563,6.79525347937604,tool,1.02567851490517,0,2,1
3,1,tool,0,0,animals,1,oven.jpg,128,(unused),17.4565466338522,24.3453639274073,6.8432584195438,tool,1.31004470269204,0,2,1
4,1,animal,0,0,animals,1,beetle.jpg,125,(unused),26.8975703965179,31.7347447535712,4.78564067253659,animal,1.02995295945493,0,1,1
5,1,tool,0,0,animals,1,lantern.jpg,140,(unused),34.2869383932541,40.5753009477471,6.23426971922805,tool,1.1826693341668,0,2,1
6,1,tool,0,0,animals,1,pencil.jpg,161,(unused),43.1441507125837,48.2148719701756,5.02337881117339,tool,1.06864683391655,0,2,1
7,1,animal,0,0,animals,1,otter.jpg,146,(unused),50.7837313570828,56.2714365958514,5.43789831935461,animal,0.869249945309321,0,1,1
8,1,animal,0,0,animals,1,waterbuffalo.jpg,173,(unused),58.8236039352078,65.2454050457229,6.35844405872011,animal,0.777559629731059,0,1,1
9,1,animal,0,0,animals,1,crab.jpg,143,(unused),67.7976230613185,74.0359053035945,6.19025969361473,animal,0.827498497508259,0,1,1
10,1,tool,0,0,animals,1,binoculars.jpg,144,(unused),76.5881518646663,84.4444282772506,7.80069249339443,tool,0.970397794199016,0,2,1
11,1,tool,0,0,animals,1,jumpercables.jpg,167,(unused),86.9966110119201,93.2848844018911,6.23335166607902,tool,1.24524454668608,0,2,1
12,1,animal,0,0,animals,1,moth.jpg,159,(unused),95.8538659890964,100.007093937235,4.10214944599615,animal,0.840361923119644,0,1,1
13,1,animal,0,0,animals,1,highlandcow.jpg,178,(unused),102.55931195283,109.614933936311,6.99652376078629,animal,0.6758113636281,0,1,1
14,1,animal,0,0,animals,1,brown_bear.jpg,129,(unused),112.16712789673,116.603982416152,4.38152269447406,animal,0.79715176939726,0,1,1
15,1,tool,0,0,animals,1,smartphone.jpg,176,(unused),119.172872914422,124.510400080734,5.28575136661776,tool,0.854061185940736,0,2,1
16,1,tool,0,0,animals,1,telephone.jpg,138,(unused),127.06262258663,132.850482869031,5.7342246209316,tool,0.95631717664196,0,2,1
17,1,animal,0,0,animals,1,angelfish.jpg,132,(unused),135.40274674983,139.539347439027,4.08255664769435,animal,0.987729388717298,0,1,1
18,1,animal,0,0,animals,1,springhare.jpg,169,(unused),142.091571227865,146.178076851003,4.04735243455631,animal,0.866257802050768,0,1,1
19,1,animal,0,0,animals,1,aardvark.jpg,175,(unused),148.747018346247,155.702539682868,6.90222401106432,animal,0.894183617168437,0,1,1
20,1,tool,0,0,animals,1,wheeldolly.jpg,148,(unused),158.271458405878,166.227801788075,7.91017900341672,tool,1.24728795377155,0,2,1
21,1,tool,0,0,animals,1,glove.jpg,150,(unused),168.780014992635,174.868214420956,6.04463943846122,tool,1.10330040088206,0,2,1
22,1,animal,0,0,animals,1,elephantafrican.jpg,153,(unused),177.437070921242,182.807983465599,5.32024809684113,animal,0.735839614027782,0,1,1
23,1,animal,0,0,animals,1,stickinsect.jpg,162,(unused),185.360196670159,191.531767492449,6.1269531217455,animal,1.11841314589219,0,1,1
24,1,tool,0,0,animals,1,drill.jpg,124,(unused),194.100616615814,198.353848669369,4.190476950673,tool,0.898615222206672,0,2,1
25,1,tool,0,0,animals,1,corkscrew.jpg,151,(unused),200.92288863047,208.028557890392,7.05597669333331,tool,0.782219919316731,0,2,1
26,1,tool,0,0,animals,1,chainsaw.jpg,179,(unused),210.580782962173,215.83489607667,5.21535700487484,tool,0.777273533494963,0,2,1
27,1,animal,0,0,animals,1,giraffe.jpg,171,(unused),218.387124355808,226.360220404601,7.92784975078285,animal,0.776520766828753,0,1,1
28,1,tool,0,0,animals,1,crutches.jpg,121,(unused),228.912415006491,235.300799306863,6.33953277921715,tool,1.11808856137327,0,2,1
29,1,tool,0,0,animals,1,ruler.jpg,166,(unused),237.869706804124,244.241439790379,6.32935487286545,tool,0.985891252474175,0,2,1
30,1,tool,0,0,animals,1,typewriter.jpg,136,(unused),246.793652353468,253.832645153593,6.98891246364759,tool,0.835072029372895,0,2,1
31,1,animal,0,0,animals,1,duck.jpg,149,(unused),256.401498767258,262.372907104846,5.91243229340785,animal,0.911131291064976,0,1,1
32,1,tool,0,0,animals,1,electricdrill.jpg,157,(unused),264.925087594366,269.128513243984,4.14814491577412,tool,0.806823554150242,0,2,1
33,1,tool,0,0,animals,1,measuringdevice.jpg,145,(unused),271.680615473995,278.452794347007,6.72720860769974,tool,0.72591348587207,0,2,1
34,1,animal,0,0,animals,1,dog.jpg,130,(unused),281.004899463639,286.37586909895,5.32013529648797,animal,0.919092271643649,0,1,1
35,1,animal,0,0,animals,1,prairiedog.jpg,152,(unused),288.911344390755,295.166325095296,6.19539104398411,animal,0.79699781626573,0,1,1
36,1,tool,0,0,animals,1,caulkinggun.jpg,156,(unused),297.718527394843,303.523133929127,5.76080865338178,tool,0.704593222304311,0,2,1
37,1,animal,0,0,animals,1,chimp.jpg,141,(unused),306.075362529,312.013405053421,5.89367694208014,animal,0.716674052830058,0,1,1
38,1,animal,0,0,animals,1,deer.jpg,142,(unused),314.582296513897,322.421898840129,7.79156794452982,animal,0.643600198946842,0,1,1
39,1,tool,0,0,animals,1,magnet.jpg,180,(unused),324.974107233654,332.463431225453,7.4370071713378,tool,1.00848130864097,0,2,1
40,1,animal,0,0,animals,1,palmcockatoo.jpg,160,(unused),335.015653410613,341.270603324527,6.195730250347,animal,0.801663237622506,0,1,1
41,1,animal,0,0,animals,1,fly.jpg,147,(unused),343.839482917783,351.19539593683,7.31985964314414,animal,0.735272553326013,0,1,1
42,1,tool,0,0,animals,1,camera.jpg,133,(unused),353.764305037769,358.067664230952,4.24698058924626,tool,0.954280825741535,0,2,1
43,1,tool,0,0,animals,1,carpetblower.jpg,168,(unused),360.619850172978,367.541869704499,6.87016786349485,tool,1.11347349551988,0,2,1
44,1,tool,0,0,animals,1,saw.jpg,163,(unused),370.094246163525,375.915523576805,5.77798533527662,tool,0.858086418858875,0,2,1
45,1,animal,0,0,animals,1,penguin.jpg,164,(unused),378.467724272673,386.057167193267,7.53508303469933,animal,1.190853546786,0,1,1
46,1,tool,0,0,animals,1,faxmachine.jpg,174,(unused),388.609350890143,396.132032997454,7.47534329326512,tool,0.67545695068975,0,2,1
47,1,animal,0,0,animals,1,shrimp.jpg,177,(unused),398.684234655529,406.407099133153,7.67430759930378,animal,0.647814986658432,0,1,1
48,1,tool,0,0,animals,1,hairbrush.jpg,131,(unused),408.959297583871,415.614609031057,6.60781115115195,tool,0.762677814418112,0,2,1
49,1,tool,0,0,animals,1,ladder.jpg,158,(unused),418.166808123246,422.270030811319,4.05150587862317,tool,0.689454497703082,0,2,1
50,1,tool,0,0,animals,1,tape.jpg,126,(unused),424.822235997487,429.892912352082,5.00600045580515,tool,0.778969904562928,0,2,1
51,1,animal,0,0,animals,1,bluejay.jpg,139,(unused),432.461816641986,440.284877666442,7.77304507383352,animal,0.73441618903189,0,1,1
52,1,animal,0,0,animals,1,lemur.jpg,127,(unused),442.853611645694,449.358835467888,6.46721154043764,animal,0.685733322219676,0,1,1
53,1,animal,0,0,animals,1,sparrow.jpg,172,(unused),451.894329683099,457.131818104541,5.19451595057662,animal,0.653076334928755,0,1,1
54,1,tool,0,0,animals,1,pruner.jpg,135,(unused),459.667332846836,467.323436190442,7.59597914388537,tool,0.740951820201644,0,2,1
55,1,animal,0,0,animals,1,octopus.jpg,170,(unused),469.875663186636,476.597682525716,6.66584035927325,animal,1.10703312285023,0,1,1
56,1,animal,0,0,animals,1,earthworm.jpg,137,(unused),479.149846978451,485.905333803912,6.69510835484239,animal,0.708842007998555,0,1,1
57,1,animal,0,0,animals,1,gecko.jpg,122,(unused),488.457491200461,496.330478584002,7.82803422311847,animal,0.771083013928546,0,1,1
58,1,tool,0,0,animals,1,beadingtool.jpg,154,(unused),498.882618019354,506.238582997582,7.31389094288371,tool,0.857316973936577,0,2,1
59,1,animal,0,0,animals,1,mink.jpg,134,(unused),508.790741677075,514.945651242439,6.1017313888506,animal,0.721597024946277,0,1,1
60,1,animal,0,0,animals,1,lobsterspiny.jpg,155,(unused),517.497854183458,522.918693407636,5.36360990981245,animal,0.731948127892338,0,1,1
