trial,phase,object,toShock,seenBefore,shockedCategory,responseSide,filename,num,name,onsetFixationCross,onsetStimulus,interTrialTime,response,reactionTime,wasShocked,buttonPressed,isResponseCorrect
1,1,animal,0,0,animals,2,flea.jpg,77,(unused),0.02917735590961,6.11681175537251,5.84722947613615,animal,2.14485597666476,0,2,1
2,1,tool,0,0,animals,2,magnifyingglass.jpg,74,(unused),8.70222812068312,15.3738243579633,6.60711666421823,tool,1.29413796608628,0,1,1
3,1,tool,0,0,animals,2,paintgun.jpg,94,(unused),17.925851379139,25.7313959673827,7.74531670792494,tool,1.15893490474684,0,1,1
4,1,tool,0,0,animals,2,stopwatch.jpg,111,(unused),28.2834897011755,35.8389944382525,7.48680040495977,tool,1.13960556540394,0,1,1
5,1,animal,0,0,animals,2,cow.jpg,80,(unused),38.390970783498,43.7114466497277,5.25790665647977,animal,0.908495740078592,0,2,1
6,1,tool,0,0,animals,2,wrench.jpg,118,(unused),46.2634364657901,53.3351191728855,7.01593533981485,tool,1.01413933882657,0,1,1
7,1,animal,0,0,animals,2,ram.jpg,97,(unused),55.8872427349158,61.758024565093,5.81257241619613,animal,0.925521890462392,0,2,1
8,1,tool,0,0,animals,2,padlock.jpg,84,(unused),64.3267974153672,70.7314742264143,6.34122945365962,tool,1.17535390616808,0,1,1
9,1,animal,0,0,animals,2,malaysianjunglenymph.jpg,85,(unused),73.2834451191862,78.2536463892277,4.91013258811292,animal,0.934462984825132,0,2,1
10,1,tool,0,0,animals,2,curlingiron.jpg,99,(unused),80.8223294340557,85.8759509830007,4.98331656440957,tool,1.17244805851863,0,1,1
11,1,animal,0,0,animals,2,turtle.jpg,78,(unused),88.4279699858332,94.4155194229295,5.93201324083125,animal,1.05716512806418,0,2,1
12,1,tool,0,0,animals,2,lighterbic.jpg,69,(unused),96.9676128359886,104.956810523755,7.92783166155589,tool,1.06224041870507,0,1,1
13,1,tool,0,0,animals,2,mixer.jpg,116,(unused),107.508754154159,115.331108718249,7.75191719090488,tool,1.04728813265933,0,1,1
14,1,animal,0,0,animals,2,macaw.jpg,81,(unused),117.883075120748,125.805535815631,7.86396284480422,animal,1.19524324661438,0,2,1
15,1,animal,0,0,animals,2,shark.jpg,110,(unused),128.374159524717,133.411062827666,4.97595267582182,animal,1.04597569021109,0,2,1
16,1,tool,0,0,animals,2,generator.jpg,66,(unused),135.963068359681,142.250978846744,6.21191178416992,tool,1.22036792383597,0,1,1
17,1,tool,0,0,animals,2,ducttape.jpg,83,(unused),144.802987906831,149.806584935682,4.93551851371461,tool,1.21993685769462,0,1,1
18,1,tool,0,0,animals,2,hoe.jpg,91,(unused),152.341854902078,159.513715905058,7.10566782743555,tool,1.2252212667313,0,1,1
19,1,animal,0,0,animals,2,crow.jpg,75,(unused),162.06572721028,166.885887955614,4.75847593570398,animal,1.14526362924335,0,2,1
20,1,tool,0,0,animals,2,mallet.jpg,82,(unused),169.437840566563,177.026700008531,7.53150084298541,tool,1.49285785359871,0,1,1
21,1,animal,0,0,animals,2,seal.jpg,107,(unused),179.578639469397,186.350287954203,6.70669873791748,animal,1.1725911057647,0,2,1
22,1,tool,0,0,animals,2,clippers.jpg,61,(unused),188.902243451756,193.422206721328,4.46082514024138,tool,1.21991697220301,0,1,1
23,1,animal,0,0,animals,2,cheetah.jpg,67,(unused),195.974137843117,203.579622839032,7.54346756214957,animal,1.06283537978561,0,2,1
24,1,animal,0,0,animals,2,dragonfly.jpg,68,(unused),206.148315826606,210.851699022275,4.63718145775735,animal,1.20201104918101,0,2,1
25,1,animal,0,0,animals,2,goldfish.jpg,98,(unused),213.420361860878,218.657501480443,5.17332736550874,animal,1.11744510937183,0,2,1
26,1,tool,0,0,animals,2,pliers2.jpg,70,(unused),221.209449280386,229.081795328994,7.81489168084267,tool,1.08641989360626,0,1,1
27,1,animal,0,0,animals,2,gerbil.jpg,90,(unused),231.617189098613,236.420613636861,4.74843188377719,animal,1.10000200513127,0,2,1
28,1,tool,0,0,animals,2,fishingpole.jpg,120,(unused),238.98926589125,246.211143075246,7.15670844763632,tool,1.2987247792471,0,1,1
29,1,animal,0,0,animals,2,baldeagle.jpg,71,(unused),248.779846647034,255.284577309275,6.43951458812672,animal,0.947654121925552,0,2,1
30,1,animal,0,0,animals,2,catfish.jpg,87,(unused),257.836509072531,265.675543715303,7.77442321205699,animal,1.14106105509859,0,2,1
31,1,tool,0,0,animals,2,reflexhammer.jpg,93,(unused),268.227537059436,272.764013946882,4.48464217555657,tool,1.32085733144413,0,1,1
32,1,animal,0,0,animals,2,rooster.jpg,106,(unused),275.299455826561,282.28786483007,6.91986229783923,animal,1.03727674981906,0,2,1
33,1,tool,0,0,animals,2,level.jpg,100,(unused),284.839856249802,290.060280509973,5.16196638102592,tool,1.06416706625805,0,1,1
34,1,tool,0,0,animals,2,keys.jpg,72,(unused),292.612255893017,299.233610794198,6.56433925483513,tool,1.15415982088302,0,1,1
35,1,animal,0,0,animals,2,seaslug.jpg,119,(unused),301.768988847864,308.440483091815,6.59553003274285,animal,1.22160114505164,0,2,1
36,1,tool,0,0,animals,2,shoehorn.jpg,102,(unused),310.992499528778,318.24774039821,7.18781382704044,tool,1.53169870904662,0,1,1
37,1,animal,0,0,animals,2,stinkbug.jpg,62,(unused),320.799751061965,326.620624477661,5.77101139907734,animal,0.827082933629526,0,2,1
38,1,tool,0,0,animals,2,carjack.jpg,88,(unused),329.172617501061,333.742526710962,4.50282996632149,tool,0.991424654898537,0,1,1
39,1,animal,0,0,animals,2,hedgehog.jpg,108,(unused),336.294546355262,340.580894548296,4.21471300915448,animal,0.837254362604199,0,2,1
40,1,tool,0,0,animals,2,eraser.jpg,117,(unused),343.132957170917,348.336556060023,5.14954656127086,tool,1.18292097720519,0,1,1
41,1,animal,0,0,animals,2,prayingmantis.jpg,96,(unused),350.888628304656,358.794368829139,7.84041751859344,animal,0.883436813272965,0,2,1
42,1,animal,0,0,animals,2,orangutan.jpg,73,(unused),361.363068872855,366.299906136727,4.87473084317709,animal,0.888162504141519,0,2,1
43,1,animal,0,0,animals,2,kangaroo.jpg,115,(unused),368.851954326329,373.421874761911,4.49705672633127,animal,0.869454746779184,0,2,1
44,1,tool,0,0,animals,2,tubeflaring.jpg,109,(unused),375.973802676363,383.095514073091,7.06502949612406,tool,1.03715070146063,0,1,1
45,1,animal,0,0,animals,2,wasp.jpg,104,(unused),385.647679330507,391.435209587726,5.71883582978481,animal,0.88172730245924,0,2,1
46,1,animal,0,0,animals,2,pelican.jpg,92,(unused),394.003858955511,400.008174748665,5.9462317240014,animal,1.04504299650625,0,2,1
47,1,tool,0,0,animals,2,airhorn.jpg,89,(unused),402.560210750386,407.263581116705,4.6482706388386,tool,1.23292080080159,0,1,1
48,1,animal,0,0,animals,2,baboon.jpg,113,(unused),409.815529878849,414.201993824689,4.32484024703847,animal,0.951692480397696,0,2,1
49,1,tool,0,0,animals,2,thermometer.jpg,79,(unused),416.770699000145,421.824343000451,4.99527767460259,tool,0.915647140193641,0,1,1
50,1,tool,0,0,animals,2,hammer.jpg,63,(unused),424.393007121989,432.315453383853,7.86135282410868,tool,0.894897271133232,0,1,1
51,1,tool,0,0,animals,2,burnisher.jpg,95,(unused),434.867406315536,441.255375464799,6.33567265300906,tool,0.944172877953406,0,1,1
52,1,animal,0,0,animals,2,caiman.jpg,64,(unused),443.790682957043,448.910998520551,5.04509920725556,animal,0.817934645273454,0,2,1
53,1,tool,0,0,animals,2,gardenhose.jpg,114,(unused),451.462971979193,455.732708089097,4.20467555388236,tool,1.03043036748704,0,1,1
54,1,animal,0,0,animals,2,ant.jpg,112,(unused),458.284697263692,462.521124854363,4.17774307640924,animal,0.911409926805391,0,2,1
55,1,tool,0,0,animals,2,stove.jpg,101,(unused),465.073096067869,471.994620540975,6.86281493510179,tool,1.00910189476667,0,1,1
56,1,tool,0,0,animals,2,avocadoslicer.jpg,76,(unused),474.546725500449,482.202322897502,7.5934773789293,tool,1.02575663548373,0,1,1
57,1,tool,0,0,animals,2,electricsander.jpg,103,(unused),484.754272301114,492.076149132303,7.2710647483644,tool,0.917280957845605,0,1,1
58,1,animal,0,0,animals,2,manatee.jpg,65,(unused),494.644910115429,500.249006334267,5.54601708194225,animal,1.00561359465223,0,2,1
59,1,animal,0,0,animals,2,dolphin.jpg,86,(unused),502.784255132237,508.7051878516,5.85599829236962,animal,0.985809248645865,0,2,1
60,1,animal,0,0,animals,2,starfish.jpg,105,(unused),511.240457817997,515.360107859003,4.05422490548967,animal,1.09012084018764,0,2,1
