trial,phase,object,toShock,seenBefore,shockedCategory,responseSide,filename,num,name,onsetFixationCross,onsetStimulus,interTrialTime,response,reactionTime,wasShocked,buttonPressed,isResponseCorrect
1,2,animal,0,0,tools,1,salamander.jpg,9,(unused),0.0316088415006561,7.83760566431238,7.6895446206341,1,0.809095541101215,0,1,0
2,2,tool,1,0,tools,1,plunger.jpg,30,(unused),12.2246664956351,20.8149557685992,8.5478090636648,1,1.11513133306107,1,1,1
3,2,animal,0,0,tools,1,yak.jpg,53,(unused),25.3687837097032,34.5928255256849,9.17330134369572,0,1.20774095423985,0,2,1
4,2,tool,1,0,tools,1,nailgun.jpg,25,(unused),38.9464338283269,48.8376826404092,9.84560362726505,1,1.17043994145888,1,1,1
5,2,tool,0,0,tools,1,italiangardeningtool.jpg,2,(unused),53.391461188518,62.7656124869604,9.32059760939767,1,1.19499852363606,0,1,0
6,2,tool,1,0,tools,1,floorbuffer.jpg,56,(unused),67.1192679374617,76.4433789998566,9.27142200408866,1,1.31462194374171,1,1,1
7,2,animal,0,0,tools,1,porcupine.jpg,60,(unused),81.013833777843,87.3855558389682,6.31595960894817,0,1.21689950607515,0,2,1
8,2,tool,1,0,tools,1,vegetablepeeler.jpg,3,(unused),91.7392109687353,98.1776001027897,6.37677478120262,1,1.10215637049896,1,1,1
9,2,tool,1,0,tools,1,spoon.jpg,44,(unused),102.71474187127,109.069774873168,6.31158876991386,0,1.76844991691951,1,2,0
10,2,animal,0,0,tools,1,mahimahi.jpg,39,(unused),113.623567854295,120.412263337178,6.73856253364806,1,0.701334137493177,0,1,0
11,2,tool,0,0,tools,1,bucket.jpg,22,(unused),124.765926164554,133.33941380075,8.51462317684071,1,0.843546834636072,0,1,0
12,2,tool,1,0,tools,1,woodchipper.jpg,13,(unused),137.693075345192,147.133763819401,9.38168760608771,1,2.00779297725148,1,1,1
13,2,tool,1,0,tools,1,kettle.jpg,58,(unused),151.687737694355,159.293796162191,7.55613033276079,1,1.45108452646309,1,1,1
14,2,animal,0,0,tools,1,beta.jpg,17,(unused),163.847586256714,170.619614810997,6.73003120430576,0,1.10073840665154,0,2,1
15,2,animal,0,0,tools,1,caterpillarpeacockmoth.jpg,1,(unused),174.98996060366,183.429993498112,8.39058878140876,0,1.38279550302968,0,2,1
16,2,tool,1,0,tools,1,abacus.jpg,12,(unused),187.800309462537,196.257013775861,8.40232084496308,0,1.27821192927968,1,2,0
17,2,tool,0,0,tools,1,hourglass.jpg,10,(unused),200.827526927388,209.951431822137,9.07779519462902,0,1.09026933676978,0,2,1
18,2,animal,0,0,tools,1,phasmagigas.jpg,36,(unused),214.305087914106,223.478920788095,9.13600232730219,0,1.59917563152203,0,2,1
19,2,tool,1,0,tools,1,compass.jpg,32,(unused),227.849399043791,234.721507428701,6.82638984182238,1,1.1880386015614,1,1,1
20,2,tool,1,0,tools,1,television.jpg,54,(unused),239.275339860078,246.831346545452,7.49662422130003,1,0.988604440018662,1,1,1
21,2,animal,0,0,tools,1,armadillo.jpg,57,(unused),251.385099434861,260.775863778636,9.33824603292422,0,1.88249898469076,0,2,1
22,2,tool,1,0,tools,1,pressuregauge.jpg,38,(unused),265.129564131859,273.85320711544,8.67368467681176,1,1.173705973094,1,1,1
23,2,animal,0,0,tools,1,frog.jpg,5,(unused),278.406998172165,285.962968293893,7.50935723547128,0,1.30435269097734,0,2,1
24,2,animal,0,0,tools,1,firebug.jpg,15,(unused),290.316657100702,297.438977891529,7.06146040387187,0,1.18670017968043,0,2,1
25,2,tool,0,0,tools,1,scale.jpg,43,(unused),301.792636228634,311.350219641055,9.51583291924766,1,1.05290642237742,0,1,0
26,2,animal,0,0,tools,1,emu.jpg,26,(unused),315.703872525686,323.710258013639,7.95241496498042,0,1.00640869044673,0,2,1
27,2,animal,0,0,tools,1,heckcattle.jpg,37,(unused),328.063863429677,337.321261554219,9.2066162855167,0,0.895022995619911,0,2,1
28,2,tool,0,0,tools,1,shovel.jpg,52,(unused),341.674921494992,350.98230404791,9.25830425941728,1,1.06626947276118,0,1,0
29,2,tool,1,0,tools,1,blower.jpg,27,(unused),355.352594032904,363.842667484137,8.45077649687256,1,2.34238914621528,1,1,1
30,2,tool,0,0,tools,1,loom.jpg,14,(unused),368.396557326852,376.069295696966,7.60703226253393,0,1.59015499519273,0,2,1
31,2,animal,0,0,tools,1,tragopan.jpg,55,(unused),380.422973598829,389.11321569186,8.63505084857962,0,1.36668504746285,0,2,1
32,2,animal,0,0,tools,1,panda.jpg,18,(unused),393.483551541778,401.356453742685,7.81346954837925,0,0.604842996639945,0,2,1
33,2,tool,1,0,tools,1,electricbreaker.jpg,41,(unused),405.710113362724,414.784010736268,9.0283238977968,1,0.848684026887895,1,1,1
34,2,animal,0,0,tools,1,chinchilla.jpg,19,(unused),419.354514586516,425.926340180491,6.5139041080479,0,0.730733874683665,0,2,1
35,2,tool,0,0,tools,1,blender.jpg,24,(unused),430.280007177406,436.868566412597,6.53942454360985,1,0.885974776189414,0,1,0
36,2,animal,0,0,tools,1,rhino.jpg,35,(unused),441.222193959263,450.379505517769,9.10774297132954,0,0.660459188690311,0,2,1
37,2,tool,1,0,tools,1,flashlight.jpg,51,(unused),454.733114461878,461.138175191208,6.35115933815407,0,1.40713566553268,1,2,0
38,2,animal,0,0,tools,1,squirel.jpg,46,(unused),465.69202526294,474.16545808574,8.41137562903515,0,0.654348248815495,0,2,1
39,2,animal,0,0,tools,1,rat.jpg,48,(unused),478.51907312379,486.158479881843,7.58070974500585,0,0.735736358766644,0,2,1
40,2,animal,0,0,tools,1,hippo.jpg,45,(unused),490.512122823728,499.068954757005,8.51144683778644,0,0.567703954395711,0,2,1
41,2,tool,1,0,tools,1,clamp.jpg,31,(unused),503.422590642748,510.795087596579,7.31658065308855,1,0.778993076294228,1,1,1
42,2,tool,1,0,tools,1,viceclamp.jpg,4,(unused),515.348932857306,522.604636545519,7.20348908310272,1,0.632777622124195,1,1,1
43,2,animal,0,0,tools,1,herculesbeetle.jpg,28,(unused),527.175136546962,533.646934269175,6.41556565201592,0,0.549924079732136,0,2,1
44,2,animal,0,0,tools,1,ferret.jpg,21,(unused),538.017241894524,545.506577658163,7.44703786578453,0,0.978636676966744,0,2,1
45,2,animal,0,0,tools,1,cat.jpg,8,(unused),549.860159660639,556.832351724981,6.91604400097764,0,0.597310244112577,0,2,1
46,2,tool,1,0,tools,1,sawblade.jpg,34,(unused),561.185990497327,569.99303900606,8.75393835200361,1,0.571073583027555,1,1,1
47,2,animal,0,0,tools,1,seahorse.jpg,42,(unused),574.546853476347,584.004203747415,9.41357813144076,0,0.704396823939533,0,2,1
48,2,animal,0,0,tools,1,mountainsheep.jpg,7,(unused),588.358004169565,595.964066486205,7.55969008828727,0,0.658942759585898,0,2,1
49,2,tool,0,0,tools,1,edger.jpg,40,(unused),600.317703975617,608.274024531026,7.90529477867708,1,1.52737906395032,0,1,0
50,2,tool,0,0,tools,1,workbench.jpg,11,(unused),612.627649511821,620.650707701581,7.98196887034117,1,1.4201962640027,0,1,0
51,2,tool,0,0,tools,1,monkeywrench.jpg,16,(unused),625.004341662922,634.078076745195,9.03599047046522,1,0.602211055601401,0,1,0
52,2,animal,0,0,tools,1,partridge.jpg,33,(unused),638.415223709562,644.486484331061,6.02301868139418,0,0.566219277931395,0,2,1
53,2,animal,0,0,tools,1,cockatiel.jpg,20,(unused),648.857002678474,658.080865204297,9.18704168812418,0,0.813231402628389,0,2,1
54,2,animal,0,0,tools,1,quail.jpg,47,(unused),662.434672361855,671.675300602268,9.18455557004709,0,0.598221769390875,0,2,1
55,2,tool,1,0,tools,1,anvil.jpg,6,(unused),676.045681034175,684.969460906914,8.86982918325044,1,0.538631686349618,1,1,1
56,2,animal,0,0,tools,1,racoon.jpg,23,(unused),689.523233681815,697.262743363324,7.68351260808334,0,0.441664897365627,0,2,1
57,2,tool,1,0,tools,1,washboard.jpg,59,(unused),701.616399455292,711.290769397923,9.62005099546376,0,1.01524201827351,1,2,0
58,2,animal,0,0,tools,1,flounder.jpg,29,(unused),715.861266833496,723.517328332266,7.59898856147436,0,1.1561268777491,0,2,1
59,2,animal,0,0,tools,1,leopard.jpg,50,(unused),727.870988914506,737.361888575843,9.43939880234641,0,0.6260441380673,0,2,1
60,2,tool,1,0,tools,1,spraybottle.jpg,49,(unused),741.715507462699,748.053926777797,6.28348425557122,0,0.874348498987729,1,2,0
