trial,phase,object,toShock,seenBefore,shockedCategory,responseSide,filename,num,name,onsetFixationCross,onsetStimulus,interTrialTime,response,reactionTime,wasShocked,buttonPressed,isResponseCorrect
1,3,animal,0,0,animals,2,stickinsect.jpg,162,(unused),0.0186950748870913,5.23941530584034,5.15608963385303,animal,1.7965712246687,0,2,1
2,3,tool,0,0,animals,2,caulkinggun.jpg,156,(unused),7.80832873719601,12.2117530720207,4.3540654570411,tool,2.07451145356254,0,1,1
3,3,animal,0,0,animals,2,highlandcow.jpg,178,(unused),14.7639409341477,19.4676041186194,4.64803414661952,animal,0.878809015256593,0,2,1
4,3,animal,0,0,animals,2,penguin.jpg,164,(unused),22.03644827171,29.0420380013356,6.96301540634532,,2.50127422457808,0,,0
5,3,animal,0,0,animals,2,sparrow.jpg,172,(unused),31.5607609334998,37.4987972988156,5.8783282635842,animal,1.38319166733754,0,2,1
6,3,tool,0,0,animals,2,saw.jpg,163,(unused),40.0677216350832,47.5736425212294,7.45184741150856,tool,1.48466989231292,0,1,1
7,3,tool,0,0,animals,2,pruner.jpg,135,(unused),50.1424751279428,55.2631466395978,5.06770292364886,tool,1.18938283493617,0,1,1
8,3,animal,0,0,animals,2,deer.jpg,142,(unused),57.8153059565138,62.0019088871773,4.14122827281373,animal,0.769825965659493,0,2,1
9,3,animal,0,0,animals,2,otter.jpg,146,(unused),64.5541054090872,70.7089776115363,6.11395651919975,animal,0.941054253258244,0,2,1
10,3,tool,0,0,animals,2,chainsaw.jpg,179,(unused),73.2611103076379,80.8504791088772,7.53954635616037,tool,1.22278939154648,0,1,1
11,3,animal,0,0,animals,2,earthworm.jpg,137,(unused),83.4026329733374,91.1587516713807,7.70294296180028,animal,1.76085090230663,0,2,1
12,3,animal,0,0,animals,2,gecko.jpg,122,(unused),93.7109472310931,101.366833750729,7.59363994160088,animal,0.696161360342103,0,2,1
13,3,tool,0,0,animals,2,drill.jpg,124,(unused),103.935872267841,111.258337252649,7.27422362888761,tool,0.350974066874187,0,1,1
14,3,tool,0,0,animals,2,typewriter.jpg,136,(unused),113.82717306669,121.266370324041,7.38756685234796,tool,0.821151858635403,0,1,1
15,3,animal,0,0,animals,2,fly.jpg,147,(unused),123.818577750863,128.121776321934,4.26533653792628,animal,0.951030002658172,0,2,1
16,3,tool,0,0,animals,2,measuringdevice.jpg,145,(unused),130.690774105992,135.110854090315,4.3607621398782,tool,1.83213984046006,0,1,1
17,3,animal,0,0,animals,2,dog.jpg,130,(unused),137.663030726797,145.25239760364,7.52641230336145,animal,0.832874318360155,0,2,1
18,3,tool,0,0,animals,2,binoculars.jpg,144,(unused),147.804572957192,154.826792998431,6.97331621241333,tool,0.874886774977313,0,1,1
19,3,tool,0,0,animals,2,glove.jpg,150,(unused),157.378965465389,162.649675416859,5.22154842122393,tool,1.06716475016583,0,1,1
20,3,animal,0,0,animals,2,shrimp.jpg,177,(unused),165.218640165448,171.090027311956,5.81730213587723,animal,0.895133027135216,0,2,1
21,3,animal,0,0,animals,2,beetle.jpg,125,(unused),173.642086881001,181.081302420115,7.38636557047408,animal,1.17619847553078,0,2,1
22,3,tool,0,0,animals,2,faxmachine.jpg,174,(unused),183.633449549189,188.420553271901,4.744123278074,tool,1.78517430864213,0,1,1
23,3,animal,0,0,animals,2,duck.jpg,149,(unused),190.989406084775,196.493705667085,5.44418738879342,animal,0.794243667411138,0,2,1
24,3,animal,0,0,animals,2,octopus.jpg,170,(unused),199.04592880981,205.717688711871,6.62426314231211,animal,1.92158930597543,0,2,1
25,3,tool,0,0,animals,2,electricdrill.jpg,157,(unused),208.270029884232,216.009356621377,7.69269651426222,tool,0.973153182620081,0,1,1
26,3,tool,0,0,animals,2,dremel.jpg,165,(unused),218.561641665514,224.182734459581,5.58008051049923,tool,0.851085842222346,0,1,1
27,3,animal,0,0,animals,2,aardvark.jpg,175,(unused),226.751597535901,234.557799608412,7.76046260092012,animal,1.72138345972326,0,2,1
28,3,tool,0,0,animals,2,ruler.jpg,166,(unused),237.10995315214,243.38155281614,6.2080021309124,tool,0.693904043546809,0,1,1
29,3,animal,0,0,animals,2,crab.jpg,143,(unused),245.933749979516,253.406318512879,7.42186742711337,animal,0.881431325872654,0,2,1
30,3,animal,0,0,animals,2,springhare.jpg,169,(unused),255.958503488412,260.078388242735,4.06605639560329,animal,0.926604603321721,0,2,1
31,3,tool,0,0,animals,2,jumpercables.jpg,167,(unused),262.6305058644,270.68692980376,7.99104463366434,tool,0.749279186954482,0,1,1
32,3,animal,0,0,animals,2,bluejay.jpg,139,(unused),273.255772673921,277.425673448843,4.12076848542103,animal,0.841749954573515,0,2,1
33,3,tool,0,0,animals,2,ladder.jpg,158,(unused),279.977862914634,286.49964948562,6.46916421213411,tool,0.528117307062985,0,1,1
34,3,tool,0,0,animals,2,pencil.jpg,161,(unused),289.051820990378,293.572061308982,4.46985663056955,tool,0.926861510220533,0,1,1
35,3,animal,0,0,animals,2,chimp.jpg,141,(unused),296.124215814907,300.494198953989,4.32555886233282,animal,0.931992592074039,0,2,1
36,3,tool,0,0,animals,2,carpetblower.jpg,168,(unused),303.063161778181,309.384817233637,6.28076024957082,tool,0.91568525829598,0,1,1
37,3,animal,0,0,animals,2,moth.jpg,159,(unused),311.936965645641,317.040959056508,5.05019904529985,animal,0.82777530977728,0,2,1
38,3,tool,0,0,animals,2,smartphone.jpg,176,(unused),319.609811548649,323.946515462005,4.28611796137825,tool,0.949441413557906,0,1,1
39,3,animal,0,0,animals,2,lobsterspiny.jpg,155,(unused),326.515400668883,332.35314423731,5.80098842755353,animal,0.843062392812499,0,2,1
40,3,animal,0,0,animals,2,mink.jpg,134,(unused),334.905492465791,339.258899497086,4.30103396535376,animal,1.1204695639467,0,2,1
41,3,tool,0,0,animals,2,telephone.jpg,138,(unused),341.811060417665,346.431358756815,4.57014541081114,tool,1.37330925115521,0,1,1
42,3,tool,0,0,animals,2,corkscrew.jpg,151,(unused),348.983522243257,355.038282542064,5.9936831923649,tool,1.47066189131465,0,1,1
43,3,tool,0,0,animals,2,crutches.jpg,121,(unused),357.590460461478,363.111471821509,5.47613846611898,tool,0.730739874265055,0,1,1
44,3,animal,0,0,animals,2,giraffe.jpg,171,(unused),365.663641722605,372.73589863207,7.01602429944192,animal,1.46059954408383,0,2,1
45,3,animal,0,0,animals,2,lemur.jpg,127,(unused),375.288075910018,382.060013465925,6.72817774698579,animal,1.39877863545462,0,2,1
46,3,animal,0,0,animals,2,waterbuffalo.jpg,173,(unused),384.62892914241,392.084774993139,7.41295692493766,animal,0.507160952690811,0,2,1
47,3,tool,0,0,animals,2,camera.jpg,133,(unused),394.637009040776,399.624140603087,4.94265328588764,tool,0.611120045158259,0,1,1
48,3,tool,0,0,animals,2,oven.jpg,128,(unused),402.176411214253,407.397250437041,5.17421344457107,tool,0.577233030951902,0,1,1
49,3,tool,0,0,animals,2,wateringcan.jpg,123,(unused),409.94936388918,415.53697475445,5.53966678468511,tool,0.823847296308941,0,1,1
50,3,animal,0,0,animals,2,angelfish.jpg,132,(unused),418.08926140225,424.761173652348,6.61596857379137,animal,0.712927341891373,0,2,1
51,3,tool,0,0,animals,2,wheeldolly.jpg,148,(unused),427.33003576647,434.869321193242,7.47391334721339,tool,0.50210620522148,0,1,1
52,3,tool,0,0,animals,2,lantern.jpg,140,(unused),437.421493018734,443.159408852698,5.68738677297595,tool,0.769202140543712,0,1,1
53,3,tool,0,0,animals,2,magnet.jpg,180,(unused),445.71153802074,452.733658955573,6.97316540042621,tool,0.596296100152358,0,1,1
54,3,animal,0,0,animals,2,palmcockatoo.jpg,160,(unused),455.285935019195,461.390707489809,6.05294715506657,animal,0.774546188914883,0,2,1
55,3,animal,0,0,animals,2,elephantafrican.jpg,153,(unused),463.942912350769,471.582237837056,7.57593022736195,animal,0.632338758885453,0,2,1
56,3,animal,0,0,animals,2,prairiedog.jpg,152,(unused),474.151146457421,478.821480061133,4.62305832815472,animal,0.895331239948518,0,2,1
57,3,tool,0,0,animals,2,tape.jpg,126,(unused),481.390326459352,487.895459946702,6.44305141378446,tool,0.457623144558966,0,1,1
58,3,tool,0,0,animals,2,hairbrush.jpg,131,(unused),490.447635620986,497.503019744909,6.99594948890175,tool,0.661366672573877,0,1,1
59,3,tool,0,0,animals,2,beadingtool.jpg,154,(unused),500.055364124598,504.141893960277,4.03562502429208,tool,1.05477805300416,0,1,1
60,3,animal,0,0,animals,2,brown_bear.jpg,129,(unused),506.694060333313,513.816171934824,7.06848101080559,animal,1.51576011731049,0,2,1
