trial,phase,object,toShock,seenBefore,shockedCategory,responseSide,filename,num,name,onsetFixationCross,onsetStimulus,interTrialTime,response,reactionTime,wasShocked,buttonPressed,isResponseCorrect
1,3,tool,0,0,tools,1,reflexhammer.jpg,93,(unused),0.0184373837873864,4.95566074925409,4.87280687140161,tool,0.975511937407646,0,2,1
2,3,animal,0,0,tools,1,prayingmantis.jpg,96,(unused),7.52455702076622,12.1948946143257,4.62138712916555,animal,0.892676492778264,0,1,1
3,3,tool,0,0,tools,1,clippers.jpg,61,(unused),14.7470882540074,22.6367757034914,7.84370995101355,tool,0.866175064864365,0,2,1
4,3,tool,0,0,tools,1,keys.jpg,72,(unused),25.2056350903986,29.6090253307975,4.35906677107841,tool,0.884298876537287,0,2,1
5,3,tool,0,0,tools,1,burnisher.jpg,95,(unused),32.1780142949228,37.9659570063977,5.72933547338819,tool,0.556703932357777,0,2,1
6,3,animal,0,0,tools,1,pelican.jpg,92,(unused),40.5181362129733,44.9381729564557,4.37736585577533,animal,0.667719856242911,0,1,1
7,3,animal,0,0,tools,1,seal.jpg,107,(unused),47.5071718633881,52.5444249931261,4.99472823461895,animal,0.746771902666296,0,1,1
8,3,tool,0,0,tools,1,thermometer.jpg,79,(unused),55.1133677713133,62.3524990009628,7.17867421139522,tool,0.749107820700374,0,2,1
9,3,animal,0,0,tools,1,dragonfly.jpg,68,(unused),64.9213933480605,69.1580391968419,4.18591966751626,animal,0.706780010865259,0,1,1
10,3,tool,0,0,tools,1,mixer.jpg,116,(unused),71.7102540050801,76.5140468329173,4.76052609486184,tool,0.785144079229212,0,2,1
11,3,tool,0,0,tools,1,mallet.jpg,82,(unused),79.0829649144562,85.421312522667,6.2831950684959,tool,0.784165835371823,0,2,1
12,3,animal,0,0,tools,1,baboon.jpg,113,(unused),87.9901812109092,93.2276773300073,5.19084999869018,animal,0.624115839093065,0,1,1
13,3,animal,0,0,tools,1,rooster.jpg,106,(unused),95.7798668001251,100.750556369032,4.91014981795694,animal,0.642674247626928,0,1,1
14,3,tool,0,0,tools,1,paintgun.jpg,94,(unused),103.302695162911,108.857155441719,5.49704239320301,tool,0.642345172809655,0,2,1
15,3,tool,0,0,tools,1,pliers2.jpg,70,(unused),111.409314121212,115.479169713175,4.01198496206741,tool,0.555499890575447,0,2,1
16,3,tool,0,0,tools,1,electricsander.jpg,103,(unused),118.031391898336,125.804253617633,7.7162233228524,tool,0.796994621528938,0,2,1
17,3,animal,0,0,tools,1,malaysianjunglenymph.jpg,85,(unused),128.356459124536,133.760784950944,5.35411904404989,animal,0.906663455512899,0,1,1
18,3,tool,0,0,tools,1,carjack.jpg,88,(unused),136.312960950163,142.834847632961,6.46311117865298,tool,0.519022941207368,0,2,1
19,3,animal,0,0,tools,1,seaslug.jpg,119,(unused),145.387019462616,149.990732555561,4.5567820250789,animal,0.540356034201977,0,1,1
20,3,animal,0,0,tools,1,hedgehog.jpg,108,(unused),152.542875519004,156.762890901489,4.15590929082268,animal,0.592541655492823,0,1,1
21,3,animal,0,0,tools,1,flea.jpg,77,(unused),159.315065617766,165.553366462711,6.17262853834676,animal,0.569359841978439,0,1,1
22,3,tool,0,0,tools,1,padlock.jpg,84,(unused),168.10556940373,174.043615776978,5.87902613015173,tool,0.56448690463003,0,2,1
23,3,tool,0,0,tools,1,ducttape.jpg,83,(unused),176.595838282874,182.85065188412,6.21703534349061,tool,0.68678823452683,0,2,1
24,3,tool,0,0,tools,1,shoehorn.jpg,102,(unused),185.386351049438,190.723898742835,5.28723988241862,tool,0.682925293867811,0,2,1
25,3,animal,0,0,tools,1,manatee.jpg,65,(unused),193.292793731403,197.779688471082,4.43892383737195,animal,0.913367152184946,0,1,1
26,3,animal,0,0,tools,1,orangutan.jpg,73,(unused),200.331835283354,207.987987378785,7.60517852648223,animal,0.602532572258497,0,1,1
27,3,animal,0,0,tools,1,crow.jpg,75,(unused),210.540208281001,218.396476675192,7.80427538530682,animal,0.638477741851602,0,1,1
28,3,tool,0,0,tools,1,eraser.jpg,117,(unused),220.948687634604,225.135164327381,4.16322680798241,animal,1.13308136385604,0,1,0
29,3,animal,0,0,tools,1,starfish.jpg,105,(unused),227.70420236407,234.943355403746,7.19573308211347,animal,0.701268168018942,0,1,1
30,3,animal,0,0,tools,1,cow.jpg,80,(unused),237.512201961224,243.183260568616,5.6263889093852,animal,0.746702623757301,0,1,1
31,3,tool,0,0,tools,1,stove.jpg,101,(unused),245.735573521975,250.355910025033,4.56433884331506,tool,0.670337700950768,0,2,1
32,3,tool,0,0,tools,1,level.jpg,100,(unused),252.908097250003,258.579237644995,5.63137310479704,tool,0.719346114488872,0,2,1
33,3,tool,0,0,tools,1,generator.jpg,66,(unused),261.131485168275,268.97108717377,7.78615561238798,tool,0.684854198312678,0,2,1
34,3,animal,0,0,tools,1,gerbil.jpg,90,(unused),271.539967729233,275.759941095341,4.16732609375402,animal,0.711285385112205,0,1,1
35,3,animal,0,0,tools,1,dolphin.jpg,86,(unused),278.312167450065,282.698933959613,4.32524410263829,animal,0.672555267516145,0,1,1
36,3,tool,0,0,tools,1,curlingiron.jpg,99,(unused),285.251130485918,290.655437709655,5.35257860070246,tool,1.67348924984799,0,2,1
37,3,animal,0,0,tools,1,ram.jpg,97,(unused),293.207628141981,299.295832381336,6.03918373360745,animal,1.41044043900911,0,1,1
38,3,tool,0,0,tools,1,stopwatch.jpg,111,(unused),301.864679580289,306.618476128659,4.70042111618581,tool,0.581987847592245,0,2,1
39,3,tool,0,0,tools,1,tubeflaring.jpg,109,(unused),309.170623903139,313.357310036323,4.13479120517493,tool,0.597495738973521,0,2,1
40,3,tool,0,0,tools,1,airhorn.jpg,89,(unused),315.926172951324,322.297939294089,6.32257017362517,tool,0.581221289290625,0,2,1
41,3,animal,0,0,tools,1,baldeagle.jpg,71,(unused),324.850128443473,328.919975696308,4.02244555628822,animal,0.965484136037048,0,1,1
42,3,animal,0,0,tools,1,catfish.jpg,87,(unused),331.488870684876,336.442618994599,4.90712306056705,animal,0.560117201579487,0,1,1
43,3,tool,0,0,tools,1,wrench.jpg,118,(unused),338.994984869349,345.616928258216,6.57392398946481,tool,0.692242344946862,0,2,1
44,3,tool,0,0,tools,1,avocadoslicer.jpg,76,(unused),348.169154292204,352.889558406345,4.66463434029499,tool,0.608851065366252,0,2,1
45,3,animal,0,0,tools,1,ant.jpg,112,(unused),355.441747234992,360.91274182354,5.41629126656821,animal,0.62999909386599,0,1,1
46,3,tool,0,0,tools,1,hammer.jpg,63,(unused),363.464959197663,369.452993190514,5.94826284082402,tool,0.652101952520752,0,2,1
47,3,animal,0,0,tools,1,goldfish.jpg,98,(unused),372.005153794422,377.893392801527,5.83095598432358,animal,0.648974458801604,0,1,1
48,3,animal,0,0,tools,1,turtle.jpg,78,(unused),380.445445317506,386.283421513786,5.79797336752138,animal,0.670355020678471,0,1,1
49,3,animal,0,0,tools,1,caiman.jpg,64,(unused),388.835662301615,395.223922477277,6.33643455765399,animal,0.574215138862201,0,1,1
50,3,tool,0,0,tools,1,hoe.jpg,91,(unused),397.792963400583,405.098815351555,7.26002834403915,tool,0.658680883007037,0,2,1
51,3,animal,0,0,tools,1,stinkbug.jpg,62,(unused),407.651006425353,413.55569917339,5.86036173255581,animal,0.652203625735638,0,1,1
52,3,animal,0,0,tools,1,wasp.jpg,104,(unused),416.107896982638,423.263494846795,7.11061471813815,animal,0.541717877944393,0,1,1
53,3,animal,0,0,tools,1,macaw.jpg,81,(unused),425.81584083593,433.588731100705,7.71628285371448,animal,0.722964654551106,0,1,1
54,3,tool,0,0,tools,1,fishingpole.jpg,120,(unused),436.14092826848,440.194138319566,4.00168192331688,tool,0.832765310906325,0,2,1
55,3,tool,0,0,tools,1,gardenhose.jpg,114,(unused),442.746312394373,449.968591208624,7.1670163892824,tool,0.610781573488566,0,2,1
56,3,tool,0,0,tools,1,lighterbic.jpg,69,(unused),452.537628283106,457.524912716648,4.93772843364035,tool,0.570747023839431,0,2,1
57,3,animal,0,0,tools,1,kangaroo.jpg,115,(unused),460.077112771043,467.483031370892,7.35243865397072,animal,0.626049875307217,0,1,1
58,3,animal,0,0,tools,1,cheetah.jpg,67,(unused),470.035213784826,474.422033215764,4.33857062928741,animal,1.30628761743174,0,1,1
59,3,animal,0,0,tools,1,shark.jpg,110,(unused),476.97422653471,481.494335058838,4.47809180399819,animal,0.608308059841875,0,1,1
60,3,tool,0,0,tools,1,magnifyingglass.jpg,74,(unused),484.046644804841,490.585141106118,6.49234654034355,tool,0.469791616364091,0,2,1
