trial,phase,object,toShock,seenBefore,shockedCategory,responseSide,filename,num,name,onsetFixationCross,onsetStimulus,interTrialTime,response,reactionTime,wasShocked,buttonPressed,isResponseCorrect
1,2,animal,0,0,tools,2,lobsterspiny.jpg,155,(unused),0.0314227125099933,9.8716699204524,9.70972924328365,1,2.29583882993757,0,1,0
2,2,tool,1,0,tools,2,smartphone.jpg,176,(unused),14.2584251350045,22.8980771271872,8.58392357004877,1,1.86281952599893,1,1,1
3,2,tool,1,0,tools,2,tape.jpg,126,(unused),27.451607897161,36.7582986059515,9.24944445022861,1,2.59105500538681,1,1,1
4,2,animal,0,0,tools,2,earthworm.jpg,137,(unused),41.3117976233871,50.4517307377882,9.09274823239786,1,1.4760113905495,0,1,0
5,2,animal,0,0,tools,2,prairiedog.jpg,152,(unused),54.8050418700032,61.7934287801318,6.93367275496231,0,2.81271883196496,0,2,1
6,2,tool,1,0,tools,2,dremel.jpg,165,(unused),66.1634234655912,74.2526577194594,8.02761226590075,1,2.73186853106927,1,1,1
7,2,tool,1,0,tools,2,chainsaw.jpg,179,(unused),78.8060486499717,87.8125316201877,8.95345161795847,1,2.6793944150013,1,1,1
8,2,animal,0,0,tools,2,fly.jpg,147,(unused),92.3659966399564,98.7539651863408,6.34339218653323,0,3.62936748949051,0,2,1
9,2,animal,0,0,tools,2,shrimp.jpg,177,(unused),103.107301014975,111.313210771696,8.16042466211246,0,2.6534897964184,0,2,1
10,2,tool,1,0,tools,2,carpetblower.jpg,168,(unused),115.666533450289,122.755069469053,7.02917968291146,1,2.95201048095169,1,1,1
11,2,animal,0,0,tools,2,gecko.jpg,122,(unused),127.308418062848,133.646329214115,6.28978435588251,0,1.90303491725626,0,2,1
12,2,tool,1,0,tools,2,measuringdevice.jpg,145,(unused),137.982946850373,146.989499740319,8.9629215475439,1,3.04731684643775,1,1,1
13,2,tool,1,0,tools,2,ladder.jpg,158,(unused),151.542917612379,161.46678881767,9.86420476752456,0,0.915423538814139,1,2,0
14,2,animal,0,0,tools,2,moth.jpg,159,(unused),166.036931296761,174.85999043891,8.7607611290978,0,1.07264414614656,0,2,1
15,2,tool,0,0,tools,2,telephone.jpg,138,(unused),179.213322418751,189.220557186433,9.95324048200372,0,1.96755735748047,0,2,1
16,2,tool,0,0,tools,2,crutches.jpg,121,(unused),193.573888845542,200.228645744583,6.60428579817907,1,2.90384220148098,0,1,0
17,2,tool,1,0,tools,2,saw.jpg,163,(unused),204.565299944369,211.10337941616,6.48644766977585,1,0.835306753620898,1,1,1
18,2,animal,0,0,tools,2,aardvark.jpg,175,(unused),215.64009384955,222.945301490301,7.26158849307966,0,2.46688269622973,0,2,1
19,2,tool,1,0,tools,2,hairbrush.jpg,131,(unused),227.315339795408,236.088384199889,8.71720406236217,0,0.803170939996562,1,2,0
20,2,tool,1,0,tools,2,drill.jpg,124,(unused),240.625141932193,247.997151139788,7.31318628125578,1,0.722758759980024,1,1,1
21,2,tool,1,0,tools,2,typewriter.jpg,136,(unused),252.550610386367,259.855855873579,7.25658787189345,,4.30415895710212,1,,0
22,2,animal,0,0,tools,2,octopus.jpg,170,(unused),264.375999972369,271.130821948076,6.69732575162458,0,1.60684339364434,0,2,1
23,2,animal,0,0,tools,2,mink.jpg,134,(unused),275.484173492612,282.405847678858,6.87702081046598,0,1.98819137548162,0,2,1
24,2,animal,0,0,tools,2,dog.jpg,130,(unused),286.759111663365,296.266022972111,9.44781442662899,0,2.66947030356732,0,2,1
25,2,tool,0,0,tools,2,binoculars.jpg,144,(unused),300.619302351789,310.009483312389,9.33629318356767,0,2.2573444903901,0,2,1
26,2,tool,0,0,tools,2,ruler.jpg,166,(unused),314.362785143357,323.769596094839,9.35249415078211,0,2.69976222485548,0,2,1
27,2,animal,0,0,tools,2,bluejay.jpg,139,(unused),328.139578271723,337.329601175245,9.13386391275741,0,1.10312690339651,0,2,1
28,2,animal,0,0,tools,2,waterbuffalo.jpg,173,(unused),341.682847840186,348.254299229456,6.52693421783705,1,0.999773354280478,0,1,0
29,2,tool,1,0,tools,2,electricdrill.jpg,157,(unused),352.624252540396,359.829439044861,7.1396186229643,1,1.36699851281082,1,1,1
30,2,tool,1,0,tools,2,glove.jpg,150,(unused),364.382916573205,371.321254747999,6.8756611229774,0,0.871529022670074,1,2,0
31,2,animal,0,0,tools,2,angelfish.jpg,132,(unused),375.874719447034,384.480806119917,8.54849211824106,0,0.651393487441965,0,2,1
32,2,animal,0,0,tools,2,palmcockatoo.jpg,160,(unused),388.834275052624,398.591376796416,9.69255144200627,0,1.37727927901597,0,2,1
33,2,animal,0,0,tools,2,chimp.jpg,141,(unused),402.944652968767,409.149095694083,6.1590762100364,0,0.95388644655759,0,2,1
34,2,tool,1,0,tools,2,camera.jpg,133,(unused),413.502394959189,421.741650012573,8.17442923444315,0,2.23977924293285,1,2,0
35,2,animal,0,0,tools,2,duck.jpg,149,(unused),426.295154482465,435.868748686952,9.50417062862191,0,2.6511240719683,0,2,1
36,2,animal,0,0,tools,2,beetle.jpg,125,(unused),440.238754277324,447.577384190588,7.28933061168039,1,1.93755505782701,0,1,0
37,2,tool,1,0,tools,2,faxmachine.jpg,174,(unused),451.914021391541,458.402026469381,6.434619347772,0,2.10053057212917,1,2,0
38,2,tool,1,0,tools,2,pruner.jpg,135,(unused),462.955499507467,469.4100107894,6.40896610242832,1,0.922855877844086,1,1,1
39,2,animal,0,0,tools,2,springhare.jpg,169,(unused),473.963624196108,481.869234917737,7.86228262981615,0,1.18915158506115,0,2,1
40,2,animal,0,0,tools,2,highlandcow.jpg,178,(unused),486.222578764688,496.062971264547,9.79085776884108,1,1.71677452912445,0,1,0
41,2,tool,1,0,tools,2,caulkinggun.jpg,156,(unused),500.433058962491,506.937586585756,6.46151081291351,1,0.688428172439671,1,1,1
42,2,tool,1,0,tools,2,wheeldolly.jpg,148,(unused),511.491174446151,518.079231450616,6.52832983151952,0,2.53120724437395,1,2,0
43,2,animal,0,0,tools,2,giraffe.jpg,171,(unused),522.63273624124,532.056109509003,9.38168212895151,0,0.784715659277026,0,2,1
44,2,tool,0,0,tools,2,corkscrew.jpg,151,(unused),536.409456242549,545.099121368737,8.64177897416599,1,0.744110577780702,0,1,0
45,2,animal,0,0,tools,2,crab.jpg,143,(unused),549.452445971726,557.975338108354,8.47949875401589,1,2.02734610367497,0,1,0
46,2,animal,0,0,tools,2,sparrow.jpg,172,(unused),562.328647636906,568.916712659689,6.53247171263168,0,0.71025884417304,0,2,1
47,2,animal,0,0,tools,2,otter.jpg,146,(unused),573.270008717467,582.643487201594,9.32413417467806,0,0.558880383106043,0,2,1
48,2,tool,0,0,tools,2,lantern.jpg,140,(unused),586.996796088681,594.402224040728,7.34702263515651,1,1.96858626800622,0,1,0
49,2,animal,0,0,tools,2,stickinsect.jpg,162,(unused),598.738650841025,608.495773432443,9.70850490559352,0,0.85444615720462,0,2,1
50,2,animal,0,0,tools,2,deer.jpg,142,(unused),612.849133636762,621.238522708309,8.33655712092242,0,0.971105623422773,0,2,1
51,2,tool,0,0,tools,2,magnet.jpg,180,(unused),625.591835444187,631.712886382636,6.07339790978274,1,2.19006086228637,0,1,0
52,2,tool,0,0,tools,2,wateringcan.jpg,123,(unused),636.066243379628,643.80516118257,7.69367543075035,0,1.63719304681945,0,2,1
53,2,animal,0,0,tools,2,penguin.jpg,164,(unused),648.141790365205,657.698697809123,9.50821920169048,0,1.18109221358827,0,2,1
54,2,tool,1,0,tools,2,beadingtool.jpg,154,(unused),662.052009262071,671.875803202853,9.76354171454266,1,1.56943473431056,1,1,1
55,2,tool,0,0,tools,2,pencil.jpg,161,(unused),676.429299012962,685.685985888996,9.195070867402,0,1.79270414882194,0,2,1
56,2,tool,0,0,tools,2,jumpercables.jpg,167,(unused),690.039289323626,699.546183954272,9.45352294995382,1,1.81887689994801,0,1,0
57,2,animal,0,0,tools,2,lemur.jpg,127,(unused),703.899477446188,711.421612012162,7.46947374878055,0,1.10985298900414,0,2,1
58,2,tool,1,0,tools,2,oven.jpg,128,(unused),715.774919616317,722.679921474964,6.85247695937666,0,2.0168379379802,1,2,0
59,2,animal,0,0,tools,2,brown_bear.jpg,129,(unused),727.233356025125,735.92293679861,8.62728221820239,0,2.13132700596634,0,2,1
60,2,animal,0,0,tools,2,elephantafrican.jpg,153,(unused),740.276272306511,750.233300538366,9.89972909016064,0,1.77133597365264,0,2,1
