trial,phase,object,toShock,seenBefore,shockedCategory,responseSide,filename,num,name,onsetFixationCross,onsetStimulus,interTrialTime,response,reactionTime,wasShocked,buttonPressed,isResponseCorrect
1,1,animal,0,0,tools,2,caterpillarpeacockmoth.jpg,1,(unused),0.0247206822295993,5.14497524136505,4.88805367009893,animal,0.993584816315888,0,2,1
2,1,animal,0,0,tools,2,flounder.jpg,29,(unused),7.7304246889189,13.551365391535,5.77154806573876,animal,0.917439022773578,0,2,1
3,1,tool,0,0,tools,2,shovel.jpg,52,(unused),16.1200350660329,23.3085248672141,7.14290254958714,tool,0.71557274329507,0,1,1
4,1,tool,0,0,tools,2,pressuregauge.jpg,38,(unused),25.8771541293909,31.297763322681,5.36384044574536,tool,1.07261014810592,0,1,1
5,1,animal,0,0,tools,2,armadillo.jpg,57,(unused),33.8497427085481,41.3718429561218,7.45429145029346,animal,0.955845802293425,0,2,1
6,1,tool,0,0,tools,2,vegetablepeeler.jpg,3,(unused),43.9237982870363,48.2102058594073,4.229909655073,tool,1.1336561665139,0,1,1
7,1,tool,0,0,tools,2,scale.jpg,43,(unused),50.7788684777856,57.3502669461586,6.51410734174932,tool,0.946918848846508,0,1,1
8,1,animal,0,0,tools,2,porcupine.jpg,60,(unused),59.9021908452678,66.1734101202769,6.22294782636956,animal,0.804034031338688,0,2,1
9,1,tool,0,0,tools,2,monkeywrench.jpg,16,(unused),68.7254376160504,74.4628614460416,5.68210954293205,tool,1.27989296154738,0,1,1
10,1,animal,0,0,tools,2,rhino.jpg,35,(unused),77.0148241538081,84.6870568158802,7.60622021961872,animal,0.898981817657386,0,2,1
11,1,animal,0,0,tools,2,yak.jpg,53,(unused),87.2557550355891,94.427561924992,7.12303692594676,animal,0.64977025883536,0,2,1
12,1,animal,0,0,tools,2,partridge.jpg,33,(unused),96.9962418629366,104.218088507158,7.15928338501442,animal,0.736554435551625,0,2,1
13,1,tool,0,0,tools,2,blender.jpg,24,(unused),106.770084571127,112.590916224622,5.75962041794193,tool,0.839125076128767,0,1,1
14,1,tool,0,0,tools,2,clamp.jpg,31,(unused),115.14289913855,119.295800117779,4.10563008652563,tool,1.49833663174331,0,1,1
15,1,tool,0,0,tools,2,workbench.jpg,11,(unused),121.847864177081,127.885507612757,5.977592174886,tool,0.778880889489301,0,1,1
16,1,animal,0,0,tools,2,rat.jpg,48,(unused),130.437464547334,135.841429958236,5.3564094519547,animal,1.06020356551608,0,2,1
17,1,tool,0,0,tools,2,television.jpg,54,(unused),138.393412118768,144.714563494337,6.27033396011366,tool,0.995365845040396,0,1,1
18,1,animal,0,0,tools,2,frog.jpg,5,(unused),147.26655891684,154.855397546914,7.52681185306563,animal,0.661819865922098,0,2,1
19,1,tool,0,0,tools,2,italiangardeningtool.jpg,2,(unused),157.424060165292,164.12886259234,6.64443458619779,tool,0.667660087792228,0,1,1
20,1,tool,0,0,tools,2,anvil.jpg,6,(unused),166.680846468466,172.585090435724,5.83779485645132,tool,0.772697804354721,0,1,1
21,1,animal,0,0,tools,2,herculesbeetle.jpg,28,(unused),175.137047370302,180.474212176558,5.27093769268925,animal,0.61077012380747,0,2,1
22,1,tool,0,0,tools,2,nailgun.jpg,25,(unused),183.026192524624,188.863730824119,5.78813817252684,tool,0.928576786772283,0,1,1
23,1,tool,0,0,tools,2,hourglass.jpg,10,(unused),191.415731378345,196.652879217841,5.17283579531541,tool,0.785670159440542,0,1,1
24,1,animal,0,0,tools,2,mahimahi.jpg,39,(unused),199.221474161618,206.526542283641,7.25257354695872,animal,0.775311134455478,0,2,1
25,1,tool,0,0,tools,2,blower.jpg,27,(unused),209.078726938442,214.365840764235,5.23961718449892,tool,0.757244261043979,0,1,1
26,1,tool,0,0,tools,2,viceclamp.jpg,4,(unused),216.917865694146,224.573330450272,7.59882632497478,tool,0.759097133895466,0,1,1
27,1,animal,0,0,tools,2,squirel.jpg,46,(unused),227.12533709842,232.545899144002,5.36576099033114,animal,0.77876414278353,0,2,1
28,1,animal,0,0,tools,2,quail.jpg,47,(unused),235.097853512718,242.286370255446,7.13280163246574,animal,0.99860716978219,0,2,1
29,1,animal,0,0,tools,2,phasmagigas.jpg,36,(unused),244.838387167041,250.425736314421,5.52793237785606,animal,0.843496983663954,0,2,1
30,1,tool,0,0,tools,2,woodchipper.jpg,13,(unused),252.977697418524,257.464185751391,4.43669934436117,tool,0.733226192246548,0,1,1
31,1,tool,0,0,tools,2,loom.jpg,14,(unused),260.032903535795,267.321452640454,7.224649359144,tool,1.10430944451446,0,1,1
32,1,tool,0,0,tools,2,floorbuffer.jpg,56,(unused),269.873505153378,276.74508698464,6.82037140929367,tool,0.826975721170129,0,1,1
33,1,animal,0,0,tools,2,panda.jpg,18,(unused),279.297093632788,284.817709850124,5.45717450977438,animal,0.8275860755125,0,2,1
34,1,animal,0,0,tools,2,leopard.jpg,50,(unused),287.369659728582,291.822830668531,4.39229977831575,animal,0.740689963081877,0,2,1
35,1,tool,0,0,tools,2,sawblade.jpg,34,(unused),294.37482095931,301.896909019041,7.45398858257018,tool,1.29793866659975,0,1,1
36,1,tool,0,0,tools,2,bucket.jpg,22,(unused),304.448894819563,310.152981691941,5.64489708380733,tool,0.755112350737818,0,1,1
37,1,animal,0,0,tools,2,emu.jpg,26,(unused),312.705023620686,316.791187500346,4.03377990420296,animal,0.770118151188854,0,2,1
38,1,animal,0,0,tools,2,cockatiel.jpg,20,(unused),319.326541064857,326.031378772504,6.64727790343253,animal,0.760221622767403,0,2,1
39,1,tool,0,0,tools,2,abacus.jpg,12,(unused),328.583351422984,334.254089791372,5.62000938650543,tool,0.820762487161574,0,1,1
40,1,animal,0,0,tools,2,racoon.jpg,23,(unused),336.806075591894,341.726246183206,4.86129475882149,animal,0.793848843480646,0,2,1
41,1,animal,0,0,tools,2,mountainsheep.jpg,7,(unused),344.278197344595,350.516080303457,6.17621122901696,animal,0.719293242701951,0,2,1
42,1,tool,0,0,tools,2,spraybottle.jpg,49,(unused),353.068025370925,360.773598197937,7.65499950767391,tool,0.846962821300622,0,1,1
43,1,animal,0,0,tools,2,heckcattle.jpg,37,(unused),363.325591054578,369.946945566533,6.57534447511705,animal,0.933032084811202,0,2,1
44,1,animal,0,0,tools,2,salamander.jpg,9,(unused),372.515711460844,379.837580845015,7.2697677836938,animal,0.72470721080299,0,2,1
45,1,animal,0,0,tools,2,chinchilla.jpg,19,(unused),382.389632395741,389.127906167407,6.67438440855685,animal,0.831665154085385,0,2,1
46,1,tool,0,0,tools,2,compass.jpg,32,(unused),391.696463585458,399.168531775797,7.41778321768014,tool,1.03844666230543,0,1,1
47,1,tool,0,0,tools,2,edger.jpg,40,(unused),401.720509558001,406.840838206391,5.05942735196619,tool,0.745285421314293,0,1,1
48,1,animal,0,0,tools,2,firebug.jpg,15,(unused),409.392848703331,415.697215062191,6.26008715324246,animal,0.948200496744903,0,2,1
49,1,animal,0,0,tools,2,tragopan.jpg,55,(unused),418.249358342473,422.602448810585,4.28359392626919,animal,0.696170980355419,0,2,1
50,1,animal,0,0,tools,2,beta.jpg,17,(unused),425.154449044078,432.943391527403,7.7397641589331,animal,0.826553316193895,0,2,1
51,1,tool,0,0,tools,2,spoon.jpg,44,(unused),435.495364498616,441.866749881094,6.30812701823159,tool,0.782474699475642,0,1,1
52,1,tool,0,0,tools,2,electricbreaker.jpg,41,(unused),444.418627915426,449.855676905102,5.38772344762389,tool,0.784800973802703,0,1,1
53,1,tool,0,0,tools,2,plunger.jpg,30,(unused),452.407808639006,458.145281220368,5.6779668033815,tool,0.700387332527498,0,1,1
54,1,animal,0,0,tools,2,seahorse.jpg,42,(unused),460.713912086209,465.433964712031,4.67785641920828,animal,0.870003296806317,0,2,1
55,1,animal,0,0,tools,2,hippo.jpg,45,(unused),467.985979378497,472.939494304274,4.90108027152638,animal,0.629713880440249,0,2,1
56,1,animal,0,0,tools,2,cat.jpg,8,(unused),475.508158847049,480.011196025422,4.45965138960459,animal,0.881233111092115,0,2,1
57,1,tool,0,0,tools,2,washboard.jpg,59,(unused),482.563357266734,487.433523704558,4.8143145531592,tool,0.685131039832413,0,1,1
58,1,tool,0,0,tools,2,flashlight.jpg,51,(unused),490.002183757075,494.388626898703,4.32939278636618,tool,0.672186267759571,0,1,1
59,1,tool,0,0,tools,2,kettle.jpg,58,(unused),496.940616548017,503.962335604768,6.96251199628561,tool,0.724842880738834,0,1,1
60,1,animal,0,0,tools,2,ferret.jpg,21,(unused),506.514319160161,511.93473398943,5.37567303110715,animal,0.880704222857275,0,2,1
