trial,phase,object,toShock,seenBefore,shockedCategory,responseSide,filename,num,name,onsetFixationCross,onsetStimulus,interTrialTime,response,reactionTime,wasShocked,buttonPressed,isResponseCorrect
1,3,tool,0,0,tools,2,hairbrush.jpg,131,(unused),0.0184777381100503,5.85627992237778,5.77216278719281,animal,0.759615500127893,0,2,0
2,3,animal,0,0,tools,2,chimp.jpg,141,(unused),8.44196950693367,13.929645433961,5.4274716626958,animal,2.39065698043396,0,2,1
3,3,tool,0,0,tools,2,measuringdevice.jpg,145,(unused),16.4818416492267,23.8377382456215,7.30655372696868,tool,0.772875316776208,0,1,1
4,3,animal,0,0,tools,2,shrimp.jpg,177,(unused),26.3898783323034,31.9109687278687,5.46190873730216,animal,0.905965811127771,0,2,1
5,3,tool,0,0,tools,2,saw.jpg,163,(unused),34.4631091352853,40.4011935340727,5.88254670571003,tool,0.822050691659115,0,1,1
6,3,animal,0,0,tools,2,lemur.jpg,127,(unused),42.9533448464713,48.090812728894,5.08361280008638,animal,0.68679138882726,0,2,1
7,3,tool,0,0,tools,2,jumpercables.jpg,167,(unused),50.642955060719,55.4300545311539,4.73234638019167,tool,0.702758206891303,0,1,1
8,3,animal,0,0,tools,2,fly.jpg,147,(unused),57.9822539537672,63.4198878805773,5.3846883504608,animal,0.710226195156338,0,2,1
9,3,tool,0,0,tools,2,caulkinggun.jpg,156,(unused),65.972076077474,73.0444219732394,7.01709705427034,tool,0.853059970195318,0,1,1
10,3,tool,0,0,tools,2,beadingtool.jpg,154,(unused),75.5798877009656,81.7514910636773,6.1166157732827,tool,1.06440044586407,0,1,1
11,3,tool,0,0,tools,2,wheeldolly.jpg,148,(unused),84.3203350169129,90.4085377187184,6.02495613508813,tool,0.888667943789642,0,1,1
12,3,animal,0,0,tools,2,moth.jpg,159,(unused),92.9606848615649,97.7311564795855,4.70796477041987,animal,0.99033605322802,0,2,1
13,3,animal,0,0,tools,2,earthworm.jpg,137,(unused),100.283316451822,106.071383899778,5.72370819608696,animal,0.876339861632914,0,2,1
14,3,animal,0,0,tools,2,gecko.jpg,122,(unused),108.623426483091,115.895887779225,7.21371395685092,animal,1.07721315825029,0,2,1
15,3,tool,0,0,tools,2,telephone.jpg,138,(unused),118.448096182412,125.203451891699,6.68601880443465,tool,0.731088387936779,0,1,1
16,3,animal,0,0,tools,2,angelfish.jpg,132,(unused),127.755615071284,132.242507764016,4.41877819281558,animal,0.975211163921813,0,2,1
17,3,animal,0,0,tools,2,penguin.jpg,164,(unused),134.794716167203,140.86622141715,6.01887404469969,animal,0.772887504697337,0,2,1
18,3,animal,0,0,tools,2,crab.jpg,143,(unused),143.418362786771,150.223827850576,6.73937062543033,animal,0.749562389657967,0,2,1
19,3,tool,0,0,tools,2,ruler.jpg,166,(unused),152.792666030586,159.3645598507,6.4983417280271,tool,0.814254270995207,0,1,1
20,3,animal,0,0,tools,2,otter.jpg,146,(unused),161.933413105244,168.672161168407,6.67442403639856,animal,0.736931213148182,0,2,1
21,3,tool,0,0,tools,2,pruner.jpg,135,(unused),171.224300934354,176.378406611969,5.10399085124829,tool,0.694040315248003,0,1,1
22,3,animal,0,0,tools,2,prairiedog.jpg,152,(unused),178.930581979474,186.670078958313,7.66235853635347,animal,0.849712461454601,0,2,1
23,3,tool,0,0,tools,2,magnet.jpg,180,(unused),189.238888913664,195.927506774549,6.6282974029758,tool,0.925613381353287,0,1,1
24,3,tool,0,0,tools,2,crutches.jpg,121,(unused),198.47980562494,204.701309543837,6.17599811865395,tool,0.713219291982114,0,1,1
25,3,tool,0,0,tools,2,typewriter.jpg,136,(unused),207.253597168511,213.558657304676,6.23371422855146,tool,0.822204323611459,0,1,1
26,3,animal,0,0,tools,2,sparrow.jpg,172,(unused),216.110787127845,223.299833650743,7.13721863142934,animal,0.922402826357484,0,2,1
27,3,animal,0,0,tools,2,elephantafrican.jpg,153,(unused),225.852074768876,232.97441295097,7.05893498051157,animal,0.991182793007738,0,2,1
28,3,tool,0,0,tools,2,pencil.jpg,161,(unused),235.526550151039,242.815711144176,7.23566569989066,tool,0.682244332065693,0,1,1
29,3,animal,0,0,tools,2,dog.jpg,130,(unused),245.384623093181,253.274328501507,7.8282419608072,animal,1.15304127135823,0,2,1
30,3,animal,0,0,tools,2,stickinsect.jpg,162,(unused),255.826417591361,262.281496602767,6.40556907503752,animal,1.20117939001148,0,2,1
31,3,tool,0,0,tools,2,corkscrew.jpg,151,(unused),264.850448002148,272.373135336108,7.47134283020762,tool,0.87194387094587,0,1,1
32,3,animal,0,0,tools,2,aardvark.jpg,175,(unused),274.925290176589,282.481215895701,7.50407077780649,animal,0.885171614118008,0,2,1
33,3,tool,0,0,tools,2,ladder.jpg,158,(unused),285.050191991659,290.137560141607,5.03458567777542,tool,1.08418753571232,0,1,1
34,3,animal,0,0,tools,2,mink.jpg,134,(unused),292.706449318444,300.562791575795,7.78220563126471,animal,1.57938469297596,0,2,1
35,3,tool,0,0,tools,2,dremel.jpg,165,(unused),303.114894136509,311.104654679141,7.94112303208058,tool,0.67586203098017,0,1,1
36,3,tool,0,0,tools,2,drill.jpg,124,(unused),313.65679123774,317.759874108227,4.05835103049919,tool,0.740844177279541,0,1,1
37,3,animal,0,0,tools,2,deer.jpg,142,(unused),320.312197975928,324.61561947818,4.25390449126175,animal,0.852364296490123,0,2,1
38,3,animal,0,0,tools,2,springhare.jpg,169,(unused),327.151053773899,332.772224000347,5.55380530280517,animal,0.881142223267034,0,2,1
39,3,tool,0,0,tools,2,wateringcan.jpg,123,(unused),335.341061538888,339.544422133607,4.14708698426839,tool,0.767116203338446,0,1,1
40,3,tool,0,0,tools,2,faxmachine.jpg,174,(unused),342.096575691149,348.618483960365,6.45086705944844,tool,0.957485757141512,0,1,1
41,3,animal,0,0,tools,2,brown_bear.jpg,129,(unused),351.170631744681,356.458111125445,5.22499168182167,animal,0.969146069518047,0,2,1
42,3,animal,0,0,tools,2,bluejay.jpg,139,(unused),359.010301567484,364.314524265178,5.24634065977024,animal,1.22593145402016,0,2,1
43,3,tool,0,0,tools,2,carpetblower.jpg,168,(unused),366.866697066806,371.65386581595,4.73717725203713,tool,0.822960616187174,0,1,1
44,3,tool,0,0,tools,2,camera.jpg,133,(unused),374.20600782704,380.060676169653,5.78657351367778,tool,0.955593742763995,0,1,1
45,3,tool,0,0,tools,2,smartphone.jpg,176,(unused),382.612842556585,386.832973730689,4.15138186746938,tool,0.930443326177738,0,1,1
46,3,animal,0,0,tools,2,duck.jpg,149,(unused),389.385036199558,397.107833481395,7.66610661114076,animal,1.16101217173491,0,2,1
47,3,animal,0,0,tools,2,waterbuffalo.jpg,173,(unused),399.660038677234,404.864198222253,5.14665877984669,animal,0.768876395728057,0,2,1
48,3,animal,0,0,tools,2,octopus.jpg,170,(unused),407.416307839132,411.903203418477,4.43199379848788,animal,1.13216689065712,0,2,1
49,3,tool,0,0,tools,2,lantern.jpg,140,(unused),414.455358258958,418.858856384744,4.34048952712651,tool,1.09478429160845,0,1,1
50,3,tool,0,0,tools,2,electricdrill.jpg,157,(unused),421.411035280332,425.981351726874,4.52063947066226,tool,1.0865122212881,0,1,1
51,3,animal,0,0,tools,2,palmcockatoo.jpg,160,(unused),428.533527735849,436.489901713868,7.89535360388193,animal,1.009315212204,0,2,1
52,3,animal,0,0,tools,2,giraffe.jpg,171,(unused),439.042042762754,445.363781427426,6.2578148881212,animal,1.23083677151408,0,2,1
53,3,tool,0,0,tools,2,chainsaw.jpg,179,(unused),447.915937871581,455.238493126964,7.26012135132368,tool,0.67350238531526,0,1,1
54,3,tool,0,0,tools,2,oven.jpg,128,(unused),457.807297309089,463.028108440894,5.16799713327918,tool,0.935103923045972,0,1,1
55,3,tool,0,0,tools,2,glove.jpg,150,(unused),465.596964902786,470.183929087297,4.51787929115678,tool,0.895625643043786,0,1,1
56,3,animal,0,0,tools,2,highlandcow.jpg,178,(unused),472.736120491541,480.358846923069,7.5612413002975,animal,0.963087389809971,0,2,1
57,3,animal,0,0,tools,2,lobsterspiny.jpg,155,(unused),482.927741231662,487.764892003623,4.78103644730085,animal,0.734247304636028,0,2,1
58,3,animal,0,0,tools,2,beetle.jpg,125,(unused),490.333759691231,495.971602993696,5.57973111707069,animal,0.82892339620048,0,2,1
59,3,tool,0,0,tools,2,tape.jpg,126,(unused),498.523747891399,503.527693891211,4.94925019101483,tool,0.95311991552262,0,1,1
60,3,tool,0,0,tools,2,binoculars.jpg,144,(unused),506.079855146387,513.452470363135,7.31824302056896,tool,0.911728452648276,0,1,1
